Time Stamp	Low Noise Accelerometer X	Low Noise Accelerometer Y	Low Noise Accelerometer Z	Internal ADC A13	Internal ADC A14	Gyroscope X	Gyroscope Y	Gyroscope Z	Magnetometer X	Magnetometer Y	Magnetometer Z	Heart Rate	PPG Filtered
CAL	CAL	CAL	CAL	CAL	CAL	CAL	CAL	CAL	CAL	CAL	CAL	cal	tab
milliseconds	m/(s^2) *	m/(s^2) *	m/(s^2) *	millivolts	millivolts	degrees/s *	degrees/s *	degrees/s *	local flux *	local flux *	local flux *	mV	BPM
63731982934.49388	0.1566265060240964	0.2530120481927711	-9.506024096385543	1609.523809523809	1510.62271062271	0	0	0	-0.8127272727272727	-0.04818181818181818	0.4663265306122449
63731982934.49876	0.1807228915662651	0.1807228915662651	-9.506024096385543	2783.882783882784	2324.542124542124	0	0	0	-0.8100000000000001	-0.04272727272727272	0.4622448979591837
63731982934.50365	0.1807228915662651	0.1927710843373494	-9.506024096385543	2783.150183150183	2294.505494505494	-32.53435114503817	60.76335877862595	-59.31297709923664	-0.8154545454545454	-0.04272727272727272	0.4693877551020408
63731982934.50853	0.1807228915662651	0.1807228915662651	-9.518072289156628	2782.417582417582	2279.120879120879	-38.62595419847328	6.793893129770992	-24.44274809160305	-0.8154545454545454	-0.05272727272727273	0.4663265306122449
63731982934.51341	0.1807228915662651	0.1686746987951807	-9.518072289156628	2783.150183150183	2280.58608058608	-0.0916030534351145	3.465648854961832	4.595419847328244	-0.8109090909090909	-0.05363636363636363	0.463265306122449
63731982934.5183	0.1807228915662651	0.1927710843373494	-9.506024096385543	2782.417582417582	2274.725274725275	-0.5801526717557252	2.564885496183206	-0.07633587786259542	-0.8145454545454546	-0.04363636363636364	0.4693877551020408
63731982934.52318	0.1807228915662651	0.1807228915662651	-9.530120481927712	2781.684981684982	2272.527472527473	-0.7175572519083969	2.595419847328244	-0.04580152671755725	-0.8136363636363636	-0.05272727272727273	0.4693877551020408
63731982934.52806	0.1807228915662651	0.1807228915662651	-9.506024096385543	2781.684981684982	2271.794871794872	-0.7938931297709924	2.595419847328244	0.06106870229007633	-0.8127272727272727	-0.04545454545454546	0.4704081632653062
63731982934.53294	0.1807228915662651	0.1686746987951807	-9.506024096385543	2780.952380952381	2265.201465201465	-0.8396946564885496	2.519083969465649	0.01526717557251908	-0.8109090909090909	-0.04	0.4693877551020408
63731982934.53783	0.1927710843373494	0.1807228915662651	-9.518072289156628	2780.952380952381	2263.736263736263	-0.6564885496183206	2.580152671755725	0	-0.8045454545454546	-0.03909090909090909	0.4683673469387756
63731982934.54271	0.1807228915662651	0.1686746987951807	-9.518072289156628	2781.684981684982	2269.59706959707	-0.8396946564885496	2.473282442748092	0	-0.8118181818181818	-0.05545454545454546	0.4663265306122449
63731982934.54759	0.1807228915662651	0.1807228915662651	-9.493975903614459	2782.417582417582	2271.794871794872	-0.9770992366412213	2.519083969465649	-0.0916030534351145	-0.8109090909090909	-0.04363636363636364	0.4663265306122449
63731982934.55247	0.1686746987951807	0.1807228915662651	-9.506024096385543	2783.150183150183	2278.388278388278	-0.7480916030534351	2.458015267175572	-0.1068702290076336	-0.8163636363636364	-0.04363636363636364	0.4693877551020408
63731982934.55736	0.1807228915662651	0.1927710843373494	-9.493975903614459	2783.882783882784	2275.457875457875	-0.7022900763358778	2.549618320610687	0.01526717557251908	-0.8072727272727273	-0.05363636363636363	0.4642857142857143
63731982934.56224	0.1807228915662651	0.1686746987951807	-9.506024096385543	2784.615384615384	2280.58608058608	-0.7022900763358778	2.503816793893129	-0.01526717557251908	-0.8100000000000001	-0.04636363636363636	0.4653061224489796
63731982934.56712	0.2048192771084338	0.1927710843373494	-9.506024096385543	2784.615384615384	2282.051282051282	-0.6717557251908397	2.641221374045801	0.06106870229007633	-0.8100000000000001	-0.03363636363636364	0.4744897959183674
63731982934.57201	0.1807228915662651	0.1686746987951807	-9.506024096385543	2784.615384615384	2282.783882783883	-0.732824427480916	2.595419847328244	0.1068702290076336	-0.8145454545454546	-0.04909090909090909	0.4744897959183674
63731982934.57689	0.1927710843373494	0.1927710843373494	-9.506024096385543	2784.615384615384	2282.783882783883	-0.8244274809160305	2.473282442748092	0.1068702290076336	-0.8090909090909091	-0.04454545454545455	0.4653061224489796
63731982934.58177	0.1807228915662651	0.1686746987951807	-9.506024096385543	2783.882783882784	2276.190476190476	-0.8244274809160305	2.519083969465649	-0.01526717557251908	-0.8054545454545454	-0.04181818181818182	0.4673469387755103
63731982934.58665	0.1807228915662651	0.1927710843373494	-9.506024096385543	2783.882783882784	2274.725274725275	-0.8702290076335878	2.473282442748092	0.1984732824427481	-0.8045454545454546	-0.03818181818181818	0.4673469387755103
63731982934.59154	0.1807228915662651	0.1686746987951807	-9.506024096385543	2783.882783882784	2273.992673992674	-0.8091603053435115	2.534351145038168	0.1221374045801527	-0.8063636363636364	-0.05272727272727273	0.4663265306122449
63731982934.59642	0.1686746987951807	0.1807228915662651	-9.506024096385543	2783.882783882784	2273.992673992674	-0.7480916030534351	2.473282442748092	0.1068702290076336	-0.8100000000000001	-0.03909090909090909	0.4714285714285715
63731982934.6013	0.1807228915662651	0.1807228915662651	-9.506024096385543	2783.882783882784	2273.992673992674	-0.732824427480916	2.564885496183206	-0.01526717557251908	-0.8154545454545454	-0.05363636363636363	0.4704081632653062
63731982934.60619	0.1927710843373494	0.1807228915662651	-9.493975903614459	2783.882783882784	2273.992673992674	-0.8091603053435115	2.427480916030534	0.07633587786259542	-0.8127272727272727	-0.04727272727272727	0.4693877551020408
63731982934.61107	0.1807228915662651	0.1686746987951807	-9.493975903614459	2783.882783882784	2273.992673992674	-0.732824427480916	2.671755725190839	0.06106870229007633	-0.8118181818181818	-0.04181818181818182	0.4693877551020408
63731982934.61595	0.1686746987951807	0.1807228915662651	-9.493975903614459	2783.882783882784	2273.992673992674	-0.5343511450381679	2.458015267175572	0.04580152671755725	-0.8145454545454546	-0.04636363636363636	0.4724489795918368
63731982934.62083	0.1807228915662651	0.1686746987951807	-9.506024096385543	2783.882783882784	2273.992673992674	-0.7633587786259541	2.549618320610687	0.1221374045801527	-0.8109090909090909	-0.04363636363636364	0.4724489795918368
63731982934.62572	0.1807228915662651	0.1807228915662651	-9.518072289156628	2783.882783882784	2273.992673992674	-0.8549618320610687	2.580152671755725	0.01526717557251908	-0.8109090909090909	-0.03636363636363636	0.4642857142857143
63731982934.6306	0.1807228915662651	0.1807228915662651	-9.506024096385543	2783.150183150183	2279.120879120879	-0.8244274809160305	2.381679389312977	0.1068702290076336	-0.8027272727272727	-0.02636363636363636	0.4673469387755103
63731982934.63548	0.1686746987951807	0.1686746987951807	-9.506024096385543	2783.150183150183	2280.58608058608	-1.068702290076336	2.564885496183206	0.1068702290076336	-0.8036363636363636	-0.05272727272727273	0.4704081632653062
63731982934.64037	0.1686746987951807	0.1927710843373494	-9.506024096385543	2782.417582417582	2274.725274725275	-0.916030534351145	2.564885496183206	0.183206106870229	-0.8072727272727273	-0.03818181818181818	0.4704081632653062
63731982934.64525	0.1807228915662651	0.1807228915662651	-9.493975903614459	2782.417582417582	2273.260073260073	-0.7175572519083969	2.549618320610687	0.06106870229007633	-0.8118181818181818	-0.05090909090909091	0.4673469387755103
63731982934.65013	0.1807228915662651	0.1807228915662651	-9.506024096385543	2781.684981684982	2271.794871794872	-0.6259541984732824	2.580152671755725	-0.04580152671755725	-0.8172727272727273	-0.05363636363636363	0.4673469387755103
63731982934.65501	0.1686746987951807	0.1927710843373494	-9.506024096385543	2781.684981684982	2271.794871794872	-0.8091603053435115	2.503816793893129	0.07633587786259542	-0.8063636363636364	-0.04545454545454546	0.4663265306122449
63731982934.6599	0.1927710843373494	0.1807228915662651	-9.506024096385543	2780.952380952381	2265.201465201465	-0.7022900763358778	2.442748091603054	0.01526717557251908	-0.8136363636363636	-0.04636363636363636	0.4683673469387756
63731982934.66478	0.1807228915662651	0.1807228915662651	-9.506024096385543	2780.952380952381	2263.003663003663	-0.7786259541984732	2.564885496183206	0.1526717557251908	-0.8136363636363636	-0.05272727272727273	0.4673469387755103
63731982934.66966	0.1686746987951807	0.1927710843373494	-9.506024096385543	2781.684981684982	2269.59706959707	-0.7938931297709924	2.503816793893129	0	-0.8100000000000001	-0.04454545454545455	0.4704081632653062
63731982934.67455	0.1927710843373494	0.1686746987951807	-9.506024096385543	2781.684981684982	2271.062271062271	-0.7022900763358778	2.625954198473282	-0.01526717557251908	-0.8163636363636364	-0.04727272727272727	0.4693877551020408
63731982934.67943	0.1686746987951807	0.1927710843373494	-9.518072289156628	2783.150183150183	2278.388278388278	-0.7175572519083969	2.442748091603054	0.03053435114503817	-0.8163636363636364	-0.05545454545454546	0.4724489795918368
63731982934.68431	0.1807228915662651	0.1807228915662651	-9.506024096385543	2783.150183150183	2280.58608058608	-0.6106870229007634	2.351145038167939	0.01526717557251908	-0.8127272727272727	-0.04909090909090909	0.4734693877551021
63731982934.68919	0.1807228915662651	0.1686746987951807	-9.506024096385543	2783.882783882784	2275.457875457875	-0.6259541984732824	2.625954198473282	0.06106870229007633	-0.8109090909090909	-0.03909090909090909	0.4693877551020408
63731982934.69408	0.1927710843373494	0.1686746987951807	-9.506024096385543	2784.615384615384	2280.58608058608	-0.7938931297709924	2.595419847328244	-0.03053435114503817	-0.8054545454545454	-0.02909090909090909	0.4693877551020408
63731982934.69896	0.1807228915662651	0.1686746987951807	-9.506024096385543	2784.615384615384	2282.051282051282	-0.7786259541984732	2.580152671755725	0	-0.8154545454545454	-0.05727272727272727	0.4683673469387756
63731982934.70384	0.1807228915662651	0.1686746987951807	-9.493975903614459	2784.615384615384	2282.783882783883	-0.5801526717557252	2.396946564885496	0.03053435114503817	-0.8109090909090909	-0.04636363636363636	0.4673469387755103
63731982934.70872	0.1807228915662651	0.1927710843373494	-9.493975903614459	2783.882783882784	2276.190476190476	-0.732824427480916	2.458015267175572	-0.01526717557251908	-0.8127272727272727	-0.04181818181818182	0.4704081632653062
63731982934.71361	0.1807228915662651	0.1566265060240964	-9.506024096385543	2783.882783882784	2274.725274725275	-0.7022900763358778	2.503816793893129	0	-0.8154545454545454	-0.05181818181818182	0.4714285714285715
63731982934.71849	0.1807228915662651	0.1686746987951807	-9.518072289156628	2783.882783882784	2273.992673992674	-0.8091603053435115	2.625954198473282	0.1221374045801527	-0.8036363636363636	-0.04727272727272727	0.4673469387755103
63731982934.72337	0.1686746987951807	0.1807228915662651	-9.518072289156628	2783.882783882784	2273.992673992674	-0.8244274809160305	2.671755725190839	0.0916030534351145	-0.8127272727272727	-0.04454545454545455	0.4693877551020408
63731982934.72826	0.1807228915662651	0.1686746987951807	-9.518072289156628	2783.882783882784	2273.992673992674	-0.8702290076335878	2.641221374045801	0	-0.8063636363636364	-0.02818181818181818	0.4714285714285715
63731982934.73314	0.1807228915662651	0.1927710843373494	-9.506024096385543	2783.882783882784	2273.992673992674	-0.7786259541984732	2.503816793893129	0.04580152671755725	-0.8109090909090909	-0.03363636363636364	0.4744897959183674
63731982934.73802	0.1927710843373494	0.1807228915662651	-9.506024096385543	2783.882783882784	2273.260073260073	-0.6870229007633587	2.458015267175572	0.01526717557251908	-0.8063636363636364	-0.04363636363636364	0.4714285714285715
63731982934.7429	0.1927710843373494	0.1807228915662651	-9.518072289156628	2783.882783882784	2273.260073260073	-0.9465648854961831	2.473282442748092	0.1068702290076336	-0.8145454545454546	-0.05181818181818182	0.4693877551020408
63731982934.74779	0.1927710843373494	0.1807228915662651	-9.506024096385543	2783.150183150183	2279.120879120879	-0.9465648854961831	2.595419847328244	-0.06106870229007633	-0.8072727272727273	-0.05090909090909091	0.4683673469387756
63731982934.75267	0.1927710843373494	0.1927710843373494	-9.506024096385543	2783.150183150183	2280.58608058608	-0.8549618320610687	2.351145038167939	0.04580152671755725	-0.8109090909090909	-0.04909090909090909	0.4683673469387756
63731982934.75755	0.1807228915662651	0.1927710843373494	-9.506024096385543	2782.417582417582	2274.725274725275	-0.916030534351145	2.503816793893129	0.03053435114503817	-0.8145454545454546	-0.05454545454545454	0.4734693877551021
63731982934.76244	0.1807228915662651	0.1807228915662651	-9.493975903614459	2782.417582417582	2273.260073260073	-0.732824427480916	2.534351145038168	0.0916030534351145	-0.8145454545454546	-0.05272727272727273	0.4673469387755103
63731982934.76732	0.1686746987951807	0.1807228915662651	-9.506024096385543	2781.684981684982	2271.794871794872	-0.7633587786259541	2.442748091603054	0.07633587786259542	-0.8109090909090909	-0.03818181818181818	0.4663265306122449
63731982934.7722	0.1807228915662651	0.1807228915662651	-9.493975903614459	2780.952380952381	2265.201465201465	-0.7786259541984732	2.656488549618321	-0.01526717557251908	-0.8118181818181818	-0.04363636363636364	0.4724489795918368
63731982934.77708	0.1686746987951807	0.1686746987951807	-9.506024096385543	2780.952380952381	2263.736263736263	-0.8244274809160305	2.473282442748092	0.1526717557251908	-0.8036363636363636	-0.02363636363636364	0.4755102040816327
63731982934.78197	0.1807228915662651	0.1807228915662651	-9.506024096385543	2781.684981684982	2268.864468864469	-0.9465648854961831	2.412213740458015	-0.04580152671755725	-0.8109090909090909	-0.04181818181818182	0.4683673469387756
63731982934.78685	0.1686746987951807	0.1927710843373494	-9.518072289156628	2781.684981684982	2271.062271062271	-0.7786259541984732	2.503816793893129	0.03053435114503817	-0.8090909090909091	-0.04454545454545455	0.4714285714285715
63731982934.79173	0.1807228915662651	0.1686746987951807	-9.506024096385543	2781.684981684982	2271.062271062271	-0.8244274809160305	2.549618320610687	-0.1068702290076336	-0.8145454545454546	-0.05363636363636363	0.4714285714285715
63731982934.79662	0.1807228915662651	0.1927710843373494	-9.506024096385543	2783.150183150183	2278.388278388278	-0.8702290076335878	2.549618320610687	0.01526717557251908	-0.8081818181818182	-0.02909090909090909	0.4734693877551021
63731982934.8015	0.1686746987951807	0.1927710843373494	-9.506024096385543	2783.882783882784	2275.457875457875	-0.8396946564885496	2.549618320610687	0.1221374045801527	-0.8136363636363636	-0.03545454545454545	0.4704081632653062
63731982934.80638	0.1807228915662651	0.1686746987951807	-9.506024096385543	2784.615384615384	2280.58608058608	-0.7786259541984732	2.595419847328244	0.06106870229007633	-0.8163636363636364	-0.04727272727272727	0.4693877551020408
63731982934.81126	0.1807228915662651	0.1807228915662651	-9.530120481927712	2784.615384615384	2282.051282051282	-0.7175572519083969	2.442748091603054	0.1068702290076336	-0.8100000000000001	-0.05272727272727273	0.4683673469387756
63731982934.81615	0.1927710843373494	0.1807228915662651	-9.493975903614459	2784.615384615384	2282.783882783883	-0.7022900763358778	2.473282442748092	0.03053435114503817	-0.8072727272727273	-0.04090909090909091	0.4734693877551021
63731982934.82103	0.1807228915662651	0.1686746987951807	-9.506024096385543	2783.882783882784	2276.190476190476	-0.7480916030534351	2.412213740458015	0.0916030534351145	-0.8118181818181818	-0.04363636363636364	0.4744897959183674
63731982934.82591	0.1927710843373494	0.1807228915662651	-9.493975903614459	2783.882783882784	2274.725274725275	-0.6717557251908397	2.473282442748092	0.06106870229007633	-0.8109090909090909	-0.04636363636363636	0.4744897959183674
63731982934.8308	0.1566265060240964	0.1807228915662651	-9.518072289156628	2783.882783882784	2273.992673992674	-0.7633587786259541	2.580152671755725	0.03053435114503817	-0.8136363636363636	-0.04272727272727272	0.4683673469387756
63731982934.83568	0.1927710843373494	0.1807228915662651	-9.506024096385543	2783.882783882784	2273.992673992674	-0.9312977099236641	2.564885496183206	0.1679389312977099	-0.8145454545454546	-0.04636363636363636	0.4724489795918368
63731982934.84056	0.1807228915662651	0.1807228915662651	-9.493975903614459	2783.882783882784	2273.992673992674	-0.7786259541984732	2.534351145038168	0.1221374045801527	-0.8090909090909091	-0.03454545454545455	0.476530612244898
63731982934.84544	0.1807228915662651	0.2048192771084338	-9.493975903614459	2783.882783882784	2273.992673992674	-0.7022900763358778	2.564885496183206	0.3206106870229007	-0.8118181818181818	-0.04545454545454546	0.4724489795918368
63731982934.85033	0.1686746987951807	0.1927710843373494	-9.518072289156628	2783.882783882784	2273.992673992674	-0.7022900763358778	2.519083969465649	-0.01526717557251908	-0.8100000000000001	-0.04454545454545455	0.4714285714285715
63731982934.85521	0.1686746987951807	0.1927710843373494	-9.506024096385543	2783.882783882784	2273.260073260073	-0.8549618320610687	2.427480916030534	0.1068702290076336	-0.8118181818181818	-0.03454545454545455	0.4775510204081633
63731982934.86009	0.1807228915662651	0.1686746987951807	-9.518072289156628	2783.150183150183	2278.388278388278	-0.9770992366412213	2.641221374045801	0.0916030534351145	-0.8018181818181818	-0.04181818181818182	0.4714285714285715
63731982934.86497	0.1807228915662651	0.1807228915662651	-9.530120481927712	2783.150183150183	2280.58608058608	-0.7786259541984732	2.473282442748092	0.01526717557251908	-0.8109090909090909	-0.03818181818181818	0.4714285714285715
63731982934.86986	0.1807228915662651	0.1686746987951807	-9.506024096385543	2782.417582417582	2274.725274725275	-0.9312977099236641	2.503816793893129	0	-0.8136363636363636	-0.04818181818181818	0.4714285714285715
63731982934.87474	0.1686746987951807	0.1686746987951807	-9.530120481927712	2781.684981684982	2272.527472527473	-0.8396946564885496	2.381679389312977	0.01526717557251908	-0.8018181818181818	-0.03545454545454545	0.4724489795918368
63731982934.87962	0.1807228915662651	0.1807228915662651	-9.506024096385543	2780.952380952381	2265.201465201465	-0.8549618320610687	2.488549618320611	-0.1374045801526718	-0.8090909090909091	-0.03636363636363636	0.4704081632653062
63731982934.88451	0.1807228915662651	0.1807228915662651	-9.518072289156628	2780.21978021978	2268.864468864469	-0.732824427480916	2.534351145038168	0.07633587786259542	-0.8045454545454546	-0.02636363636363636	0.4693877551020408
63731982934.88939	0.1686746987951807	0.1807228915662651	-9.518072289156628	2781.684981684982	2270.32967032967	-0.9618320610687022	2.412213740458015	0.01526717557251908	-0.8118181818181818	-0.04181818181818182	0.4744897959183674
63731982934.89427	0.1807228915662651	0.1807228915662651	-9.493975903614459	2782.417582417582	2271.794871794872	-0.732824427480916	2.458015267175572	0.1068702290076336	-0.8072727272727273	-0.05272727272727273	0.4683673469387756
63731982934.89915	0.1686746987951807	0.1807228915662651	-9.518072289156628	2783.150183150183	2278.388278388278	-0.9007633587786259	2.687022900763359	0.04580152671755725	-0.8090909090909091	-0.03636363636363636	0.4714285714285715
63731982934.90404	0.1686746987951807	0.1807228915662651	-9.518072289156628	2784.615384615384	2281.318681318681	-0.8702290076335878	2.458015267175572	-0.03053435114503817	-0.8063636363636364	-0.03363636363636364	0.4704081632653062
63731982934.90892	0.1807228915662651	0.1686746987951807	-9.506024096385543	2784.615384615384	2282.051282051282	-0.9465648854961831	2.656488549618321	0.03053435114503817	-0.8100000000000001	-0.02727272727272727	0.4755102040816327
63731982934.9138	0.1566265060240964	0.1807228915662651	-9.518072289156628	2784.615384615384	2282.783882783883	-0.7633587786259541	2.534351145038168	0.1221374045801527	-0.8090909090909091	-0.04	0.4683673469387756
63731982934.91869	0.1807228915662651	0.1807228915662651	-9.518072289156628	2784.615384615384	2282.783882783883	-0.7938931297709924	2.458015267175572	0.1221374045801527	-0.8154545454545454	-0.04363636363636364	0.4734693877551021
63731982934.92357	0.1807228915662651	0.1807228915662651	-9.506024096385543	2783.882783882784	2276.190476190476	-0.916030534351145	2.488549618320611	-0.01526717557251908	-0.8090909090909091	-0.04909090909090909	0.4704081632653062
63731982934.92845	0.1686746987951807	0.1686746987951807	-9.518072289156628	2783.882783882784	2274.725274725275	-0.7633587786259541	2.442748091603054	-0.1068702290076336	-0.8136363636363636	-0.04272727272727272	0.4734693877551021
63731982934.93333	0.1686746987951807	0.2048192771084338	-9.506024096385543	2783.882783882784	2273.992673992674	-0.8854961832061068	2.442748091603054	0.04580152671755725	-0.8154545454545454	-0.05272727272727273	0.4744897959183674
63731982934.93822	0.1686746987951807	0.1686746987951807	-9.518072289156628	2783.882783882784	2273.992673992674	-0.7175572519083969	2.488549618320611	0.0916030534351145	-0.8063636363636364	-0.04818181818181818	0.4683673469387756
63731982934.9431	0.1927710843373494	0.1927710843373494	-9.506024096385543	2783.882783882784	2273.992673992674	-0.8244274809160305	2.488549618320611	0.0916030534351145	-0.7990909090909091	-0.04909090909090909	0.4714285714285715
63731982934.94798	0.1807228915662651	0.1927710843373494	-9.493975903614459	2783.150183150183	2279.120879120879	-0.7633587786259541	2.625954198473282	0.1526717557251908	-0.8054545454545454	-0.05272727272727273	0.4714285714285715
63731982934.95287	0.1807228915662651	0.1807228915662651	-9.518072289156628	2783.150183150183	2280.58608058608	-0.7175572519083969	2.656488549618321	0.0916030534351145	-0.8100000000000001	-0.04545454545454546	0.4744897959183674
63731982934.95775	0.1927710843373494	0.1927710843373494	-9.481927710843374	2783.150183150183	2280.58608058608	-0.8702290076335878	2.564885496183206	-0.07633587786259542	-0.8118181818181818	-0.03909090909090909	0.4775510204081633
63731982934.96263	0.1807228915662651	0.1927710843373494	-9.518072289156628	2782.417582417582	2274.725274725275	-0.7480916030534351	2.442748091603054	-0.07633587786259542	-0.8109090909090909	-0.04272727272727272	0.4734693877551021
63731982934.96751	0.2048192771084338	0.1807228915662651	-9.518072289156628	2782.417582417582	2272.527472527473	-0.6259541984732824	2.610687022900763	0.183206106870229	-0.8136363636363636	-0.03363636363636364	0.4714285714285715
63731982934.9724	0.1807228915662651	0.1927710843373494	-9.493975903614459	2781.684981684982	2271.794871794872	-0.6870229007633587	2.427480916030534	-0.03053435114503817	-0.8118181818181818	-0.05272727272727273	0.4673469387755103
63731982934.97728	0.1807228915662651	0.1927710843373494	-9.518072289156628	2780.952380952381	2264.468864468864	-0.8549618320610687	2.610687022900763	0.03053435114503817	-0.7990909090909091	-0.04909090909090909	0.4693877551020408
63731982934.98216	0.1807228915662651	0.1686746987951807	-9.518072289156628	2781.684981684982	2269.59706959707	-0.6870229007633587	2.458015267175572	0	-0.7990909090909091	-0.04545454545454546	0.4714285714285715
63731982934.98705	0.1927710843373494	0.1927710843373494	-9.493975903614459	2781.684981684982	2271.062271062271	-0.6870229007633587	2.595419847328244	0.06106870229007633	-0.8100000000000001	-0.03090909090909091	0.4775510204081633
63731982934.99193	0.1807228915662651	0.1807228915662651	-9.518072289156628	2782.417582417582	2271.794871794872	-0.8396946564885496	2.412213740458015	0.04580152671755725	-0.8063636363636364	-0.04636363636363636	0.4734693877551021
63731982934.99681	0.1927710843373494	0.1807228915662651	-9.518072289156628	2783.882783882784	2273.260073260073	-0.8549618320610687	2.519083969465649	0.1679389312977099	-0.8136363636363636	-0.04181818181818182	0.4714285714285715
63731982935.00169	0.1807228915662651	0.1686746987951807	-9.518072289156628	2784.615384615384	2279.85347985348	-0.6412213740458015	2.534351145038168	-0.01526717557251908	-0.8145454545454546	-0.05363636363636363	0.4704081632653062
63731982935.00658	0.1807228915662651	0.1807228915662651	-9.493975903614459	2784.615384615384	2282.051282051282	-0.7480916030534351	2.519083969465649	0.03053435114503817	-0.8072727272727273	-0.05181818181818182	0.4663265306122449
63731982935.01146	0.1686746987951807	0.1566265060240964	-9.518072289156628	2783.882783882784	2276.190476190476	-0.8702290076335878	2.549618320610687	0.07633587786259542	-0.8100000000000001	-0.05272727272727273	0.4724489795918368
63731982935.01634	0.1686746987951807	0.1566265060240964	-9.518072289156628	2783.882783882784	2274.725274725275	-0.732824427480916	2.473282442748092	-0.03053435114503817	-0.8118181818181818	-0.04727272727272727	0.4755102040816327
63731982935.02122	0.1807228915662651	0.1807228915662651	-9.506024096385543	2783.882783882784	2273.992673992674	-0.7175572519083969	2.488549618320611	0.06106870229007633	-0.8018181818181818	-0.04727272727272727	0.4744897959183674
63731982935.02611	0.1686746987951807	0.1807228915662651	-9.506024096385543	2783.882783882784	2273.992673992674	-0.9465648854961831	2.610687022900763	0.1221374045801527	-0.8163636363636364	-0.04363636363636364	0.4704081632653062
63731982935.03099	0.1807228915662651	0.1807228915662651	-9.506024096385543	2783.882783882784	2273.992673992674	-0.6564885496183206	2.427480916030534	0.1068702290076336	-0.8090909090909091	-0.03363636363636364	0.4693877551020408
63731982935.03587	0.1927710843373494	0.1807228915662651	-9.506024096385543	2783.882783882784	2273.992673992674	-0.7633587786259541	2.396946564885496	0.03053435114503817	-0.8081818181818182	-0.04727272727272727	0.4755102040816327
63731982935.04076	0.1686746987951807	0.1927710843373494	-9.506024096385543	2783.150183150183	2279.120879120879	-0.5801526717557252	2.564885496183206	0.1068702290076336	-0.8	-0.03636363636363636	0.4734693877551021
63731982935.04564	0.1807228915662651	0.1807228915662651	-9.493975903614459	2782.417582417582	2273.992673992674	-0.8396946564885496	2.519083969465649	0.1984732824427481	-0.8027272727272727	-0.03545454545454545	0.4744897959183674
63731982935.05052	0.1686746987951807	0.1686746987951807	-9.493975903614459	2782.417582417582	2273.260073260073	-0.8854961832061068	2.519083969465649	0.07633587786259542	-0.8063636363636364	-0.05090909090909091	0.4663265306122449
63731982935.0554	0.1686746987951807	0.1927710843373494	-9.506024096385543	2781.684981684982	2271.794871794872	-0.8244274809160305	2.427480916030534	-0.01526717557251908	-0.8109090909090909	-0.04	0.4704081632653062
63731982935.06029	0.1807228915662651	0.1807228915662651	-9.493975903614459	2780.952380952381	2265.201465201465	-0.8091603053435115	2.473282442748092	0.03053435114503817	-0.8136363636363636	-0.04636363636363636	0.4744897959183674
63731982935.06517	0.1927710843373494	0.1927710843373494	-9.506024096385543	2780.952380952381	2263.003663003663	-0.7938931297709924	2.625954198473282	0.1374045801526718	-0.8145454545454546	-0.05363636363636363	0.4683673469387756
63731982935.07005	0.1686746987951807	0.2048192771084338	-9.518072289156628	2781.684981684982	2269.59706959707	-0.732824427480916	2.580152671755725	0.06106870229007633	-0.8109090909090909	-0.05181818181818182	0.4693877551020408
63731982935.07494	0.1807228915662651	0.1807228915662651	-9.518072289156628	2783.150183150183	2277.655677655678	-0.9007633587786259	2.564885496183206	0.01526717557251908	-0.8136363636363636	-0.04545454545454546	0.4714285714285715
63731982935.07982	0.1927710843373494	0.1927710843373494	-9.506024096385543	2783.882783882784	2274.725274725275	-0.732824427480916	2.442748091603054	0.1679389312977099	-0.8127272727272727	-0.05272727272727273	0.4693877551020408
63731982935.0847	0.1686746987951807	0.1927710843373494	-9.506024096385543	2784.615384615384	2279.85347985348	-0.8854961832061068	2.564885496183206	0.1526717557251908	-0.8072727272727273	-0.05	0.4683673469387756
63731982935.08958	0.1927710843373494	0.1807228915662651	-9.506024096385543	2783.882783882784	2275.457875457875	-0.8396946564885496	2.625954198473282	-0.01526717557251908	-0.8018181818181818	-0.04545454545454546	0.4724489795918368
63731982935.09447	0.1807228915662651	0.1927710843373494	-9.493975903614459	2783.882783882784	2273.992673992674	-0.6564885496183206	2.534351145038168	0.0916030534351145	-0.8081818181818182	-0.04818181818181818	0.4714285714285715
63731982935.09935	0.1807228915662651	0.1927710843373494	-9.506024096385543	2783.150183150183	2279.120879120879	-0.7022900763358778	2.488549618320611	0.01526717557251908	-0.8109090909090909	-0.04818181818181818	0.4724489795918368
63731982935.10423	0.1927710843373494	0.1927710843373494	-9.506024096385543	2783.882783882784	2275.457875457875	-0.732824427480916	2.580152671755725	0	-0.8063636363636364	-0.04	0.4704081632653062
63731982935.10912	0.1686746987951807	0.1807228915662651	-9.506024096385543	2783.882783882784	2273.992673992674	-0.7633587786259541	2.702290076335878	0.1984732824427481	-0.8	-0.03	0.4714285714285715
63731982935.114	0.1807228915662651	0.1807228915662651	-9.506024096385543	2783.882783882784	2273.992673992674	-0.7175572519083969	2.503816793893129	0.1679389312977099	-0.8072727272727273	-0.03909090909090909	0.4775510204081633
63731982935.11888	0.1807228915662651	0.1807228915662651	-9.493975903614459	2783.150183150183	2279.120879120879	-0.916030534351145	2.412213740458015	0.03053435114503817	-0.8118181818181818	-0.04454545454545455	0.4744897959183674
63731982935.12376	0.1686746987951807	0.1927710843373494	-9.493975903614459	2783.150183150183	2279.85347985348	-0.6106870229007634	2.549618320610687	0.1984732824427481	-0.8072727272727273	-0.05	0.4714285714285715
63731982935.12865	0.1927710843373494	0.1807228915662651	-9.506024096385543	2782.417582417582	2274.725274725275	-0.8244274809160305	2.458015267175572	0.04580152671755725	-0.8136363636363636	-0.04545454545454546	0.4673469387755103
63731982935.13353	0.1927710843373494	0.1807228915662651	-9.518072289156628	2781.684981684982	2272.527472527473	-0.7022900763358778	2.488549618320611	-0.03053435114503817	-0.8100000000000001	-0.03727272727272727	0.4693877551020408
63731982935.13841	0.1686746987951807	0.1807228915662651	-9.506024096385543	2781.684981684982	2271.794871794872	-0.8244274809160305	2.580152671755725	0.183206106870229	-0.8154545454545454	-0.04454545454545455	0.4714285714285715
63731982935.1433	0.1807228915662651	0.1807228915662651	-9.506024096385543	2780.952380952381	2265.201465201465	-0.8244274809160305	2.610687022900763	0.04580152671755725	-0.8109090909090909	-0.05545454545454546	0.4683673469387756
63731982935.14818	0.1927710843373494	0.1927710843373494	-9.518072289156628	2782.417582417582	2270.32967032967	-0.916030534351145	2.488549618320611	0	-0.8100000000000001	-0.05181818181818182	0.4683673469387756
63731982935.15306	0.1686746987951807	0.2048192771084338	-9.518072289156628	2783.150183150183	2278.388278388278	-0.7786259541984732	2.503816793893129	0.04580152671755725	-0.8118181818181818	-0.03727272727272727	0.4704081632653062
63731982935.15794	0.1807228915662651	0.1686746987951807	-9.518072289156628	2784.615384615384	2281.318681318681	-0.6412213740458015	2.473282442748092	0.0916030534351145	-0.8	-0.03090909090909091	0.4755102040816327
63731982935.16283	0.1807228915662651	0.1927710843373494	-9.518072289156628	2784.615384615384	2282.051282051282	-0.9465648854961831	2.488549618320611	0.07633587786259542	-0.8109090909090909	-0.04909090909090909	0.4663265306122449
63731982935.16771	0.1807228915662651	0.1807228915662651	-9.506024096385543	2783.882783882784	2276.190476190476	-0.9007633587786259	2.442748091603054	0.04580152671755725	-0.8	-0.04727272727272727	0.4724489795918368
63731982935.17259	0.1807228915662651	0.1927710843373494	-9.518072289156628	2783.882783882784	2273.992673992674	-0.7480916030534351	2.381679389312977	-0.1374045801526718	-0.8100000000000001	-0.04272727272727272	0.4704081632653062
63731982935.17747	0.1807228915662651	0.1927710843373494	-9.506024096385543	2783.150183150183	2279.120879120879	-0.8854961832061068	2.427480916030534	-0.04580152671755725	-0.8118181818181818	-0.04272727272727272	0.4744897959183674
63731982935.18236	0.1807228915662651	0.1927710843373494	-9.493975903614459	2784.615384615384	2281.318681318681	-0.8854961832061068	2.274809160305344	0.1374045801526718	-0.8090909090909091	-0.04909090909090909	0.4734693877551021
63731982935.18724	0.1686746987951807	0.1927710843373494	-9.493975903614459	2783.150183150183	2281.318681318681	-0.6717557251908397	2.442748091603054	0.1679389312977099	-0.8109090909090909	-0.04363636363636364	0.4734693877551021
63731982935.19212	0.2048192771084338	0.1927710843373494	-9.518072289156628	2783.882783882784	2275.457875457875	-0.6870229007633587	2.458015267175572	-0.03053435114503817	-0.8090909090909091	-0.04545454545454546	0.4744897959183674
63731982935.19701	0.1927710843373494	0.1807228915662651	-9.506024096385543	2783.882783882784	2274.725274725275	-0.7175572519083969	2.564885496183206	0.01526717557251908	-0.8127272727272727	-0.03545454545454545	0.476530612244898
63731982935.20189	0.1807228915662651	0.1807228915662651	-9.506024096385543	2783.150183150183	2279.120879120879	-0.7175572519083969	2.549618320610687	-0.01526717557251908	-0.8163636363636364	-0.04636363636363636	0.4734693877551021
63731982935.20677	0.1807228915662651	0.1927710843373494	-9.506024096385543	2783.150183150183	2280.58608058608	-0.7633587786259541	2.473282442748092	0.1374045801526718	-0.8081818181818182	-0.05454545454545454	0.4693877551020408
63731982935.21165	0.1927710843373494	0.1686746987951807	-9.506024096385543	2782.417582417582	2274.725274725275	-0.8091603053435115	2.427480916030534	-0.07633587786259542	-0.8100000000000001	-0.05090909090909091	0.4693877551020408
63731982935.21654	0.1927710843373494	0.1807228915662651	-9.518072289156628	2782.417582417582	2272.527472527473	-0.6717557251908397	2.473282442748092	-0.01526717557251908	-0.8145454545454546	-0.04545454545454546	0.4724489795918368
63731982935.22142	0.1807228915662651	0.1927710843373494	-9.506024096385543	2781.684981684982	2271.794871794872	-0.7633587786259541	2.412213740458015	0	-0.8136363636363636	-0.05090909090909091	0.4683673469387756
63731982935.2263	0.1807228915662651	0.1807228915662651	-9.506024096385543	2780.952380952381	2265.201465201465	-0.8702290076335878	2.580152671755725	0.1068702290076336	-0.8072727272727273	-0.05090909090909091	0.4704081632653062
63731982935.23119	0.1807228915662651	0.1927710843373494	-9.506024096385543	2781.684981684982	2269.59706959707	-0.7786259541984732	2.519083969465649	0.06106870229007633	-0.8081818181818182	-0.04454545454545455	0.4734693877551021
63731982935.23607	0.1807228915662651	0.1927710843373494	-9.506024096385543	2781.684981684982	2270.32967032967	-0.8549618320610687	2.488549618320611	-0.04580152671755725	-0.8136363636363636	-0.05	0.4755102040816327
63731982935.24095	0.1566265060240964	0.1807228915662651	-9.506024096385543	2782.417582417582	2271.794871794872	-0.6412213740458015	2.534351145038168	-0.03053435114503817	-0.8154545454545454	-0.04909090909090909	0.4714285714285715
63731982935.24583	0.1686746987951807	0.1927710843373494	-9.506024096385543	2784.615384615384	2279.120879120879	-0.7786259541984732	2.473282442748092	-0.06106870229007633	-0.8027272727272727	-0.04727272727272727	0.4734693877551021
63731982935.25072	0.1807228915662651	0.1927710843373494	-9.481927710843374	2785.347985347985	2282.783882783883	-0.7175572519083969	2.564885496183206	0.07633587786259542	-0.8127272727272727	-0.04272727272727272	0.4714285714285715
63731982935.2556	0.1566265060240964	0.1686746987951807	-9.493975903614459	2784.615384615384	2282.051282051282	-0.7480916030534351	2.412213740458015	0.06106870229007633	-0.8109090909090909	-0.05363636363636363	0.4693877551020408
63731982935.26048	0.1686746987951807	0.1807228915662651	-9.506024096385543	2783.882783882784	2276.190476190476	-0.7175572519083969	2.503816793893129	0.03053435114503817	-0.8109090909090909	-0.05363636363636363	0.4704081632653062
63731982935.26537	0.1807228915662651	0.1686746987951807	-9.506024096385543	2783.882783882784	2273.992673992674	-0.7938931297709924	2.519083969465649	0.183206106870229	-0.8081818181818182	-0.04181818181818182	0.476530612244898
63731982935.27025	0.2048192771084338	0.1807228915662651	-9.506024096385543	2783.882783882784	2273.992673992674	-0.7022900763358778	2.519083969465649	0.1068702290076336	-0.8127272727272727	-0.05454545454545454	0.4714285714285715
63731982935.27513	0.1807228915662651	0.2048192771084338	-9.493975903614459	2783.882783882784	2273.992673992674	-0.6259541984732824	2.549618320610687	0.04580152671755725	-0.8145454545454546	-0.05363636363636363	0.4693877551020408
63731982935.28001	0.1807228915662651	0.1807228915662651	-9.506024096385543	2783.882783882784	2273.992673992674	-0.8091603053435115	2.610687022900763	0.07633587786259542	-0.8100000000000001	-0.04	0.4693877551020408
63731982935.2849	0.1807228915662651	0.1807228915662651	-9.506024096385543	2783.150183150183	2278.388278388278	-0.7938931297709924	2.564885496183206	0.1679389312977099	-0.8136363636363636	-0.04363636363636364	0.4714285714285715
63731982935.28978	0.1686746987951807	0.1927710843373494	-9.506024096385543	2782.417582417582	2273.992673992674	-0.916030534351145	2.290076335877862	0.04580152671755725	-0.8090909090909091	-0.05363636363636363	0.4724489795918368
63731982935.29466	0.1807228915662651	0.1807228915662651	-9.506024096385543	2782.417582417582	2272.527472527473	-0.6717557251908397	2.488549618320611	0.06106870229007633	-0.8127272727272727	-0.03909090909090909	0.4744897959183674
63731982935.29955	0.2048192771084338	0.1927710843373494	-9.530120481927712	2780.952380952381	2265.201465201465	-0.8091603053435115	2.564885496183206	0.07633587786259542	-0.8136363636363636	-0.05272727272727273	0.4683673469387756
63731982935.30443	0.1927710843373494	0.1807228915662651	-9.506024096385543	2780.952380952381	2263.003663003663	-0.7480916030534351	2.534351145038168	0.04580152671755725	-0.8081818181818182	-0.04636363636363636	0.4714285714285715
63731982935.30931	0.1807228915662651	0.1807228915662651	-9.493975903614459	2780.952380952381	2262.271062271062	-0.7786259541984732	2.427480916030534	0.0916030534351145	-0.8090909090909091	-0.04363636363636364	0.4683673469387756
63731982935.31419	0.1927710843373494	0.1927710843373494	-9.506024096385543	2781.684981684982	2268.864468864469	-0.9312977099236641	2.488549618320611	0.07633587786259542	-0.8045454545454546	-0.02818181818181818	0.4734693877551021
63731982935.31908	0.1807228915662651	0.1927710843373494	-9.506024096385543	2783.150183150183	2277.655677655678	-0.7480916030534351	2.656488549618321	-0.04580152671755725	-0.8081818181818182	-0.03454545454545455	0.4734693877551021
63731982935.32396	0.1807228915662651	0.1807228915662651	-9.530120481927712	2784.615384615384	2281.318681318681	-0.9007633587786259	2.549618320610687	0.06106870229007633	-0.8109090909090909	-0.04454545454545455	0.4714285714285715
63731982935.32884	0.1927710843373494	0.1807228915662651	-9.518072289156628	2783.882783882784	2275.457875457875	-0.6412213740458015	2.488549618320611	0.03053435114503817	-0.8027272727272727	-0.02272727272727273	0.4704081632653062
63731982935.33372	0.1807228915662651	0.1927710843373494	-9.506024096385543	2783.882783882784	2274.725274725275	-0.8244274809160305	2.519083969465649	0.03053435114503817	-0.8118181818181818	-0.03545454545454545	0.476530612244898
63731982935.33861	0.1927710843373494	0.1686746987951807	-9.506024096385543	2783.882783882784	2273.992673992674	-0.7480916030534351	2.519083969465649	0.04580152671755725	-0.8100000000000001	-0.04454545454545455	0.4744897959183674
63731982935.34349	0.1807228915662651	0.1566265060240964	-9.506024096385543	2783.150183150183	2279.120879120879	-0.8091603053435115	2.427480916030534	0.04580152671755725	-0.8109090909090909	-0.04363636363636364	0.4714285714285715
63731982935.34837	0.1927710843373494	0.1686746987951807	-9.493975903614459	2783.882783882784	2274.725274725275	-0.6717557251908397	2.519083969465649	0.0916030534351145	-0.8100000000000001	-0.03363636363636364	0.4775510204081633
63731982935.35326	0.1927710843373494	0.1927710843373494	-9.506024096385543	2783.150183150183	2279.85347985348	-0.6870229007633587	2.442748091603054	-0.1221374045801527	-0.8118181818181818	-0.02818181818181818	0.4744897959183674
63731982935.35814	0.1807228915662651	0.1807228915662651	-9.506024096385543	2783.150183150183	2280.58608058608	-0.7022900763358778	2.595419847328244	-0.1679389312977099	-0.8018181818181818	-0.04818181818181818	0.4734693877551021
63731982935.36302	0.1807228915662651	0.1686746987951807	-9.493975903614459	2782.417582417582	2274.725274725275	-0.7938931297709924	2.503816793893129	0.0916030534351145	-0.8045454545454546	-0.04636363636363636	0.4714285714285715
63731982935.3679	0.1807228915662651	0.1807228915662651	-9.518072289156628	2782.417582417582	2272.527472527473	-0.6717557251908397	2.396946564885496	0	-0.8145454545454546	-0.05090909090909091	0.4704081632653062
63731982935.37279	0.1807228915662651	0.1807228915662651	-9.506024096385543	2781.684981684982	2271.794871794872	-0.7480916030534351	2.458015267175572	0.0916030534351145	-0.8081818181818182	-0.04454545454545455	0.4775510204081633
63731982935.37767	0.1807228915662651	0.1686746987951807	-9.506024096385543	2780.952380952381	2265.201465201465	-0.7633587786259541	2.427480916030534	0.1068702290076336	-0.8072727272727273	-0.05272727272727273	0.4775510204081633
63731982935.38255	0.1807228915662651	0.1927710843373494	-9.506024096385543	2780.952380952381	2263.003663003663	-0.5954198473282443	2.534351145038168	0.1068702290076336	-0.8127272727272727	-0.03454545454545455	0.4734693877551021
63731982935.38744	0.1686746987951807	0.1686746987951807	-9.506024096385543	2781.684981684982	2268.864468864469	-0.6412213740458015	2.625954198473282	-0.07633587786259542	-0.8090909090909091	-0.04272727272727272	0.4704081632653062
63731982935.39232	0.1927710843373494	0.1807228915662651	-9.493975903614459	2782.417582417582	2271.794871794872	-0.6412213740458015	2.748091603053435	0.01526717557251908	-0.8036363636363636	-0.02545454545454546	0.4693877551020408
63731982935.3972	0.1927710843373494	0.1927710843373494	-9.493975903614459	2783.882783882784	2273.260073260073	-0.8854961832061068	2.488549618320611	0.1068702290076336	-0.8081818181818182	-0.05363636363636363	0.4683673469387756
63731982935.40208	0.1927710843373494	0.1807228915662651	-9.506024096385543	2783.882783882784	2273.260073260073	-0.732824427480916	2.549618320610687	-0.06106870229007633	-0.8109090909090909	-0.04181818181818182	0.4755102040816327
63731982935.40697	0.1807228915662651	0.1807228915662651	-9.493975903614459	2783.882783882784	2273.260073260073	-0.8549618320610687	2.473282442748092	0.1984732824427481	-0.8009090909090909	-0.03727272727272727	0.4724489795918368
63731982935.41185	0.1927710843373494	0.2048192771084338	-9.493975903614459	2783.882783882784	2273.260073260073	-0.8396946564885496	2.610687022900763	0.03053435114503817	-0.8109090909090909	-0.03454545454545455	0.4693877551020408
63731982935.41673	0.1807228915662651	0.1927710843373494	-9.493975903614459	2783.882783882784	2273.992673992674	-0.8854961832061068	2.564885496183206	0.07633587786259542	-0.8109090909090909	-0.04636363636363636	0.4714285714285715
63731982935.42162	0.1927710843373494	0.2048192771084338	-9.518072289156628	2783.882783882784	2273.260073260073	-0.8702290076335878	2.534351145038168	0.03053435114503817	-0.8100000000000001	-0.04454545454545455	0.4693877551020408
63731982935.4265	0.1807228915662651	0.1807228915662651	-9.493975903614459	2783.150183150183	2279.120879120879	-0.9923664122137404	2.534351145038168	0.0916030534351145	-0.8136363636363636	-0.04636363636363636	0.4744897959183674
63731982935.43138	0.1686746987951807	0.1927710843373494	-9.493975903614459	2783.150183150183	2280.58608058608	-0.916030534351145	2.610687022900763	0.1221374045801527	-0.8136363636363636	-0.05363636363636363	0.4673469387755103
63731982935.43626	0.1807228915662651	0.1927710843373494	-9.506024096385543	2783.882783882784	2275.457875457875	-0.7480916030534351	2.610687022900763	0.01526717557251908	-0.8100000000000001	-0.05	0.4724489795918368
63731982935.44115	0.1686746987951807	0.1686746987951807	-9.506024096385543	2783.882783882784	2273.992673992674	-0.7480916030534351	2.458015267175572	0.06106870229007633	-0.8127272727272727	-0.04090909090909091	0.4714285714285715
63731982935.44603	0.1807228915662651	0.1807228915662651	-9.506024096385543	2783.150183150183	2279.120879120879	-0.8854961832061068	2.503816793893129	0.07633587786259542	-0.8109090909090909	-0.05181818181818182	0.4724489795918368
63731982935.45091	0.1807228915662651	0.1807228915662651	-9.506024096385543	2783.150183150183	2280.58608058608	-0.8702290076335878	2.488549618320611	-0.04580152671755725	-0.8081818181818182	-0.05181818181818182	0.4704081632653062
63731982935.4558	0.1807228915662651	0.1807228915662651	-9.493975903614459	2783.150183150183	2280.58608058608	-0.7633587786259541	2.488549618320611	-0.03053435114503817	-0.8045454545454546	-0.04454545454545455	0.4724489795918368
63731982935.46068	0.2048192771084338	0.1927710843373494	-9.506024096385543	2783.150183150183	2280.58608058608	-0.6870229007633587	2.549618320610687	0.0916030534351145	-0.8063636363636364	-0.05090909090909091	0.4704081632653062
63731982935.46556	0.1927710843373494	0.1686746987951807	-9.506024096385543	2782.417582417582	2274.725274725275	-0.6870229007633587	2.488549618320611	-0.03053435114503817	-0.8127272727272727	-0.04727272727272727	0.4744897959183674
63731982935.47044	0.1807228915662651	0.1927710843373494	-9.518072289156628	2781.684981684982	2272.527472527473	-0.7786259541984732	2.595419847328244	0.01526717557251908	-0.8072727272727273	-0.04363636363636364	0.4775510204081633
63731982935.47533	0.2048192771084338	0.1807228915662651	-9.518072289156628	2780.952380952381	2265.201465201465	-0.9312977099236641	2.534351145038168	0.1068702290076336	-0.8136363636363636	-0.05363636363636363	0.4714285714285715
63731982935.48021	0.1686746987951807	0.1807228915662651	-9.493975903614459	2780.952380952381	2263.736263736263	-0.732824427480916	2.381679389312977	0.1374045801526718	-0.8090909090909091	-0.04818181818181818	0.4704081632653062
63731982935.48509	0.1807228915662651	0.1927710843373494	-9.493975903614459	2780.952380952381	2263.003663003663	-0.5801526717557252	2.488549618320611	-0.0916030534351145	-0.8009090909090909	-0.04272727272727272	0.4724489795918368
63731982935.48997	0.1807228915662651	0.1807228915662651	-9.518072289156628	2780.952380952381	2263.736263736263	-0.8091603053435115	2.564885496183206	0	-0.8081818181818182	-0.03363636363636364	0.4775510204081633
63731982935.49486	0.2048192771084338	0.1807228915662651	-9.506024096385543	2782.417582417582	2269.59706959707	-0.7786259541984732	2.610687022900763	0.07633587786259542	-0.8090909090909091	-0.03090909090909091	0.476530612244898
63731982935.49974	0.1686746987951807	0.1807228915662651	-9.506024096385543	2783.150183150183	2277.655677655678	-0.8091603053435115	2.473282442748092	0.03053435114503817	-0.8100000000000001	-0.04454545454545455	0.4683673469387756
63731982935.50462	0.1807228915662651	0.1927710843373494	-9.518072289156628	2783.150183150183	2279.85347985348	-0.7938931297709924	2.381679389312977	0.06106870229007633	-0.8118181818181818	-0.04454545454545455	0.4734693877551021
63731982935.50951	0.1807228915662651	0.2048192771084338	-9.493975903614459	2783.882783882784	2275.457875457875	-0.8396946564885496	2.381679389312977	-0.04580152671755725	-0.8109090909090909	-0.05272727272727273	0.4714285714285715
63731982935.51439	0.1807228915662651	0.1807228915662651	-9.481927710843374	2783.882783882784	2273.992673992674	-0.7786259541984732	2.458015267175572	-0.0916030534351145	-0.8081818181818182	-0.05272727272727273	0.4704081632653062
63731982935.51927	0.1927710843373494	0.1807228915662651	-9.493975903614459	2783.882783882784	2273.992673992674	-0.7633587786259541	2.458015267175572	0	-0.8100000000000001	-0.04272727272727272	0.4775510204081633
63731982935.52415	0.1927710843373494	0.1686746987951807	-9.506024096385543	2783.882783882784	2273.992673992674	-0.9007633587786259	2.564885496183206	0.06106870229007633	-0.8090909090909091	-0.05090909090909091	0.4724489795918368
63731982935.52904	0.1927710843373494	0.1807228915662651	-9.506024096385543	2783.150183150183	2279.120879120879	-0.916030534351145	2.503816793893129	-0.03053435114503817	-0.8136363636363636	-0.04363636363636364	0.4724489795918368
63731982935.53392	0.1686746987951807	0.1807228915662651	-9.506024096385543	2783.882783882784	2274.725274725275	-0.7480916030534351	2.595419847328244	0	-0.8054545454545454	-0.04090909090909091	0.4693877551020408
63731982935.5388	0.1686746987951807	0.1686746987951807	-9.506024096385543	2783.882783882784	2273.992673992674	-0.7022900763358778	2.549618320610687	0.01526717557251908	-0.8054545454545454	-0.04909090909090909	0.4693877551020408
63731982935.54369	0.1927710843373494	0.1807228915662651	-9.506024096385543	2783.882783882784	2273.992673992674	-0.7480916030534351	2.473282442748092	0.183206106870229	-0.8063636363636364	-0.03090909090909091	0.4744897959183674
63731982935.54857	0.1807228915662651	0.1807228915662651	-9.506024096385543	2783.150183150183	2279.120879120879	-0.8396946564885496	2.473282442748092	0.06106870229007633	-0.8100000000000001	-0.03727272727272727	0.4714285714285715
63731982935.55345	0.1686746987951807	0.1807228915662651	-9.518072289156628	2783.882783882784	2275.457875457875	-0.8702290076335878	2.488549618320611	0.06106870229007633	-0.8127272727272727	-0.04181818181818182	0.4724489795918368
63731982935.55833	0.1686746987951807	0.1927710843373494	-9.506024096385543	2783.150183150183	2279.120879120879	-0.7175572519083969	2.519083969465649	-0.03053435114503817	-0.8109090909090909	-0.05	0.4704081632653062
63731982935.56322	0.1807228915662651	0.1807228915662651	-9.506024096385543	2783.882783882784	2275.457875457875	-0.6564885496183206	2.580152671755725	0.1526717557251908	-0.8063636363636364	-0.04818181818181818	0.4704081632653062
63731982935.5681	0.1807228915662651	0.1807228915662651	-9.493975903614459	2783.150183150183	2279.120879120879	-0.7022900763358778	2.534351145038168	0.2900763358778626	-0.8136363636363636	-0.05181818181818182	0.4734693877551021
63731982935.57298	0.1927710843373494	0.1807228915662651	-9.493975903614459	2783.882783882784	2275.457875457875	-0.7938931297709924	2.412213740458015	0	-0.8154545454545454	-0.04636363636363636	0.4653061224489796
63731982935.57787	0.1927710843373494	0.1807228915662651	-9.506024096385543	2783.150183150183	2279.120879120879	-0.916030534351145	2.519083969465649	-0.01526717557251908	-0.8118181818181818	-0.04272727272727272	0.4673469387755103
63731982935.58275	0.1686746987951807	0.1927710843373494	-9.493975903614459	2783.150183150183	2280.58608058608	-0.7938931297709924	2.33587786259542	0.1679389312977099	-0.8054545454545454	-0.02818181818181818	0.4693877551020408
63731982935.58763	0.1686746987951807	0.1807228915662651	-9.493975903614459	2783.150183150183	2280.58608058608	-0.8091603053435115	2.564885496183206	0.04580152671755725	-0.8109090909090909	-0.04545454545454546	0.4744897959183674
63731982935.59251	0.1686746987951807	0.1927710843373494	-9.518072289156628	2783.882783882784	2275.457875457875	-0.7938931297709924	2.427480916030534	-0.03053435114503817	-0.8090909090909091	-0.04545454545454546	0.4755102040816327
63731982935.5974	0.1807228915662651	0.1566265060240964	-9.493975903614459	2783.150183150183	2279.85347985348	-0.6717557251908397	2.564885496183206	0.06106870229007633	-0.8136363636363636	-0.04727272727272727	0.4704081632653062
63731982935.60228	0.1807228915662651	0.1686746987951807	-9.493975903614459	2783.150183150183	2280.58608058608	-0.8091603053435115	2.473282442748092	-0.04580152671755725	-0.8163636363636364	-0.05090909090909091	0.4704081632653062
63731982935.60716	0.1927710843373494	0.1807228915662651	-9.518072289156628	2783.150183150183	2281.318681318681	-0.7022900763358778	2.458015267175572	-0.04580152671755725	-0.8109090909090909	-0.03272727272727273	0.4744897959183674
63731982935.61205	0.1927710843373494	0.1686746987951807	-9.506024096385543	2783.882783882784	2276.190476190476	-0.6259541984732824	2.625954198473282	-0.03053435114503817	-0.8100000000000001	-0.03818181818181818	0.4663265306122449
63731982935.61693	0.1807228915662651	0.1686746987951807	-9.506024096385543	2783.150183150183	2279.85347985348	-0.7022900763358778	2.488549618320611	0.1984732824427481	-0.8009090909090909	-0.04272727272727272	0.4734693877551021
63731982935.62181	0.1807228915662651	0.1927710843373494	-9.493975903614459	2783.150183150183	2280.58608058608	-0.9465648854961831	2.473282442748092	0.1374045801526718	-0.8100000000000001	-0.05181818181818182	0.4704081632653062
63731982935.62669	0.1686746987951807	0.1686746987951807	-9.493975903614459	2782.417582417582	2274.725274725275	-0.7175572519083969	2.549618320610687	0.01526717557251908	-0.8100000000000001	-0.04909090909090909	0.4724489795918368
63731982935.63158	0.1686746987951807	0.1807228915662651	-9.506024096385543	2782.417582417582	2273.260073260073	-0.7938931297709924	2.396946564885496	0.1221374045801527	-0.8100000000000001	-0.04363636363636364	0.4714285714285715
63731982935.63646	0.1807228915662651	0.1807228915662651	-9.506024096385543	2782.417582417582	2272.527472527473	-0.7938931297709924	2.396946564885496	0.1526717557251908	-0.8127272727272727	-0.05181818181818182	0.4714285714285715
63731982935.64134	0.1807228915662651	0.1807228915662651	-9.493975903614459	2782.417582417582	2271.794871794872	-0.8549618320610687	2.564885496183206	-0.01526717557251908	-0.8063636363636364	-0.04727272727272727	0.4704081632653062
63731982935.64622	0.1807228915662651	0.1807228915662651	-9.518072289156628	2781.684981684982	2271.794871794872	-0.7480916030534351	2.33587786259542	-0.07633587786259542	-0.8100000000000001	-0.04272727272727272	0.4683673469387756
63731982935.65111	0.1807228915662651	0.1807228915662651	-9.506024096385543	2781.684981684982	2271.062271062271	-0.732824427480916	2.396946564885496	-0.06106870229007633	-0.8090909090909091	-0.03	0.4744897959183674
63731982935.65599	0.1686746987951807	0.1686746987951807	-9.506024096385543	2781.684981684982	2271.062271062271	-0.7022900763358778	2.396946564885496	0.03053435114503817	-0.8100000000000001	-0.04181818181818182	0.4744897959183674
63731982935.66087	0.1807228915662651	0.1807228915662651	-9.493975903614459	2780.952380952381	2264.468864468864	-0.8396946564885496	2.580152671755725	0.04580152671755725	-0.8063636363636364	-0.03818181818181818	0.4724489795918368
63731982935.66576	0.1927710843373494	0.1807228915662651	-9.506024096385543	2780.21978021978	2268.131868131868	-0.8091603053435115	2.534351145038168	0	-0.8018181818181818	-0.02727272727272727	0.4795918367346939
63731982935.67064	0.1927710843373494	0.1807228915662651	-9.481927710843374	2780.952380952381	2263.736263736263	-0.8549618320610687	2.488549618320611	0.03053435114503817	-0.8054545454545454	-0.03727272727272727	0.476530612244898
63731982935.67552	0.1807228915662651	0.1927710843373494	-9.493975903614459	2780.952380952381	2263.003663003663	-0.9007633587786259	2.534351145038168	0.07633587786259542	-0.8090909090909091	-0.04272727272727272	0.4724489795918368
63731982935.6804	0.1927710843373494	0.1807228915662651	-9.518072289156628	2781.684981684982	2268.864468864469	-0.8396946564885496	2.519083969465649	0.2442748091603053	-0.8154545454545454	-0.05	0.4744897959183674
63731982935.68529	0.1807228915662651	0.1686746987951807	-9.506024096385543	2781.684981684982	2270.32967032967	-0.6564885496183206	2.595419847328244	-0.01526717557251908	-0.8154545454545454	-0.05181818181818182	0.4704081632653062
63731982935.69017	0.1807228915662651	0.1927710843373494	-9.493975903614459	2782.417582417582	2271.794871794872	-0.8244274809160305	2.656488549618321	0.01526717557251908	-0.8090909090909091	-0.03818181818181818	0.4683673469387756
63731982935.69505	0.1686746987951807	0.1927710843373494	-9.506024096385543	2783.150183150183	2278.388278388278	-0.7480916030534351	2.671755725190839	-0.03053435114503817	-0.8145454545454546	-0.04363636363636364	0.4744897959183674
63731982935.69994	0.1807228915662651	0.1807228915662651	-9.506024096385543	2783.882783882784	2274.725274725275	-0.7938931297709924	2.473282442748092	0.07633587786259542	-0.8109090909090909	-0.05272727272727273	0.4693877551020408
63731982935.70482	0.1807228915662651	0.1686746987951807	-9.518072289156628	2783.882783882784	2273.992673992674	-0.8702290076335878	2.549618320610687	0.1526717557251908	-0.8090909090909091	-0.05363636363636363	0.4704081632653062
63731982935.7097	0.1807228915662651	0.1686746987951807	-9.506024096385543	2783.882783882784	2273.992673992674	-0.6717557251908397	2.458015267175572	0.03053435114503817	-0.8109090909090909	-0.04727272727272727	0.4744897959183674
63731982935.71458	0.1927710843373494	0.1686746987951807	-9.518072289156628	2783.882783882784	2273.260073260073	-0.7786259541984732	2.503816793893129	-0.03053435114503817	-0.8109090909090909	-0.05272727272727273	0.4724489795918368
63731982935.71947	0.1927710843373494	0.1686746987951807	-9.493975903614459	2783.882783882784	2273.992673992674	-0.9618320610687022	2.549618320610687	0.1374045801526718	-0.8118181818181818	-0.04545454545454546	0.4714285714285715
63731982935.72435	0.1807228915662651	0.1807228915662651	-9.506024096385543	2783.882783882784	2273.992673992674	-0.9007633587786259	2.625954198473282	0.06106870229007633	-0.8100000000000001	-0.03909090909090909	0.4724489795918368
63731982935.72923	0.1807228915662651	0.1807228915662651	-9.518072289156628	2783.150183150183	2279.120879120879	-0.7938931297709924	2.671755725190839	-0.07633587786259542	-0.8109090909090909	-0.04545454545454546	0.476530612244898
63731982935.73412	0.1807228915662651	0.1807228915662651	-9.506024096385543	2783.882783882784	2274.725274725275	-0.7175572519083969	2.656488549618321	0.1068702290076336	-0.8109090909090909	-0.05363636363636363	0.4663265306122449
63731982935.739	0.1807228915662651	0.1807228915662651	-9.506024096385543	2783.150183150183	2279.85347985348	-0.6412213740458015	2.366412213740458	0.06106870229007633	-0.8100000000000001	-0.05	0.4724489795918368
63731982935.74388	0.1807228915662651	0.1807228915662651	-9.493975903614459	2783.150183150183	2280.58608058608	-0.8854961832061068	2.625954198473282	0.06106870229007633	-0.8118181818181818	-0.05090909090909091	0.476530612244898
63731982935.74876	0.1927710843373494	0.1927710843373494	-9.506024096385543	2783.150183150183	2280.58608058608	-0.7786259541984732	2.549618320610687	0.06106870229007633	-0.8136363636363636	-0.04727272727272727	0.4673469387755103
63731982935.75365	0.1686746987951807	0.1807228915662651	-9.506024096385543	2783.150183150183	2281.318681318681	-0.8244274809160305	2.656488549618321	0.2748091603053435	-0.8127272727272727	-0.04363636363636364	0.4663265306122449
63731982935.75853	0.1927710843373494	0.1927710843373494	-9.506024096385543	2783.150183150183	2281.318681318681	-0.7175572519083969	2.549618320610687	0.03053435114503817	-0.8154545454545454	-0.04727272727272727	0.4744897959183674
63731982935.76341	0.1927710843373494	0.1927710843373494	-9.493975903614459	2783.150183150183	2281.318681318681	-0.9007633587786259	2.519083969465649	0.1984732824427481	-0.8090909090909091	-0.04454545454545455	0.476530612244898
63731982935.7683	0.1927710843373494	0.1807228915662651	-9.518072289156628	2783.150183150183	2281.318681318681	-0.732824427480916	2.427480916030534	0.0916030534351145	-0.8090909090909091	-0.04181818181818182	0.4734693877551021
63731982935.77318	0.1807228915662651	0.1807228915662651	-9.493975903614459	2783.150183150183	2281.318681318681	-0.8854961832061068	2.549618320610687	-0.04580152671755725	-0.8136363636363636	-0.04454545454545455	0.4734693877551021
63731982935.77806	0.2048192771084338	0.1927710843373494	-9.506024096385543	2783.150183150183	2281.318681318681	-0.7633587786259541	2.625954198473282	-0.01526717557251908	-0.8109090909090909	-0.03363636363636364	0.4724489795918368
63731982935.78294	0.1807228915662651	0.1927710843373494	-9.518072289156628	2782.417582417582	2274.725274725275	-0.8702290076335878	2.320610687022901	0.07633587786259542	-0.8100000000000001	-0.04636363636363636	0.4714285714285715
63731982935.78783	0.1686746987951807	0.1686746987951807	-9.530120481927712	2782.417582417582	2273.260073260073	-0.6870229007633587	2.732824427480916	0.07633587786259542	-0.8100000000000001	-0.04272727272727272	0.4704081632653062
63731982935.79271	0.1927710843373494	0.1686746987951807	-9.518072289156628	2782.417582417582	2272.527472527473	-0.7786259541984732	2.580152671755725	0.07633587786259542	-0.8036363636363636	-0.03727272727272727	0.4714285714285715
63731982935.79759	0.1807228915662651	0.1807228915662651	-9.530120481927712	2781.684981684982	2271.794871794872	-0.8854961832061068	2.488549618320611	0.1068702290076336	-0.8100000000000001	-0.04636363636363636	0.4755102040816327
63731982935.80247	0.2048192771084338	0.1807228915662651	-9.506024096385543	2781.684981684982	2271.794871794872	-1.099236641221374	2.305343511450382	0.06106870229007633	-0.8036363636363636	-0.03636363636363636	0.4744897959183674
63731982935.80736	0.1807228915662651	0.1686746987951807	-9.506024096385543	2780.952380952381	2265.201465201465	-0.7786259541984732	2.412213740458015	0.0916030534351145	-0.8045454545454546	-0.04181818181818182	0.4755102040816327
63731982935.81224	0.1807228915662651	0.1807228915662651	-9.530120481927712	2780.952380952381	2263.003663003663	-1.114503816793893	2.687022900763359	-0.1526717557251908	-0.8027272727272727	-0.04636363636363636	0.4724489795918368
63731982935.81712	0.1927710843373494	0.1807228915662651	-9.506024096385543	2780.952380952381	2263.003663003663	-0.8396946564885496	2.473282442748092	0.1221374045801527	-0.8081818181818182	-0.05272727272727273	0.4704081632653062
63731982935.82201	0.1927710843373494	0.1807228915662651	-9.493975903614459	2780.952380952381	2262.271062271062	-0.6564885496183206	2.610687022900763	0.07633587786259542	-0.8118181818181818	-0.04454545454545455	0.4704081632653062
63731982935.82689	0.1807228915662651	0.1927710843373494	-9.506024096385543	2780.952380952381	2262.271062271062	-0.8854961832061068	2.564885496183206	0.1679389312977099	-0.8127272727272727	-0.05181818181818182	0.4755102040816327
63731982935.83177	0.1686746987951807	0.1927710843373494	-9.506024096385543	2780.21978021978	2267.399267399267	-0.8244274809160305	2.503816793893129	0.01526717557251908	-0.8145454545454546	-0.05363636363636363	0.4683673469387756
63731982935.83665	0.1686746987951807	0.1927710843373494	-9.493975903614459	2780.21978021978	2269.59706959707	-0.8854961832061068	2.580152671755725	0.1068702290076336	-0.8072727272727273	-0.04545454545454546	0.4714285714285715
63731982935.84154	0.1686746987951807	0.1807228915662651	-9.506024096385543	2780.952380952381	2264.468864468864	-0.8091603053435115	2.396946564885496	-0.03053435114503817	-0.8054545454545454	-0.03545454545454545	0.4704081632653062
63731982935.84642	0.1807228915662651	0.1807228915662651	-9.518072289156628	2781.684981684982	2269.59706959707	-0.7938931297709924	2.488549618320611	0.03053435114503817	-0.8090909090909091	-0.05272727272727273	0.4734693877551021
63731982935.8513	0.1927710843373494	0.1686746987951807	-9.506024096385543	2781.684981684982	2270.32967032967	-1.007633587786259	2.473282442748092	0.04580152671755725	-0.8109090909090909	-0.05	0.4734693877551021
63731982935.85619	0.2048192771084338	0.1807228915662651	-9.518072289156628	2782.417582417582	2271.794871794872	-0.9465648854961831	2.503816793893129	0.1221374045801527	-0.8027272727272727	-0.03545454545454545	0.4744897959183674
63731982935.86107	0.2048192771084338	0.1807228915662651	-9.530120481927712	2782.417582417582	2272.527472527473	-0.6870229007633587	2.625954198473282	0.04580152671755725	-0.8081818181818182	-0.05272727272727273	0.4704081632653062
63731982935.86595	0.1927710843373494	0.1807228915662651	-9.506024096385543	2782.417582417582	2272.527472527473	-1.007633587786259	2.625954198473282	0.07633587786259542	-0.8090909090909091	-0.04454545454545455	0.4724489795918368
63731982935.87083	0.1807228915662651	0.1927710843373494	-9.506024096385543	2783.150183150183	2279.120879120879	-0.7938931297709924	2.473282442748092	-0.06106870229007633	-0.8145454545454546	-0.04636363636363636	0.4775510204081633
63731982935.87572	0.1807228915662651	0.2048192771084338	-9.506024096385543	2783.882783882784	2274.725274725275	-0.7938931297709924	2.473282442748092	0.0916030534351145	-0.8081818181818182	-0.05272727272727273	0.4724489795918368
63731982935.8806	0.1807228915662651	0.1807228915662651	-9.506024096385543	2783.882783882784	2273.992673992674	-0.9007633587786259	2.519083969465649	0.0916030534351145	-0.8090909090909091	-0.05090909090909091	0.4704081632653062
63731982935.88548	0.1927710843373494	0.1927710843373494	-9.493975903614459	2783.882783882784	2273.992673992674	-0.9312977099236641	2.427480916030534	0.04580152671755725	-0.8109090909090909	-0.04363636363636364	0.4755102040816327
63731982935.89037	0.1927710843373494	0.1927710843373494	-9.506024096385543	2783.882783882784	2273.992673992674	-0.9465648854961831	2.519083969465649	0.01526717557251908	-0.8136363636363636	-0.05	0.4734693877551021
63731982935.89525	0.1807228915662651	0.1927710843373494	-9.506024096385543	2783.882783882784	2273.992673992674	-0.9923664122137404	2.427480916030534	0.1374045801526718	-0.8063636363636364	-0.05	0.4673469387755103
63731982935.90013	0.1807228915662651	0.1927710843373494	-9.518072289156628	2783.882783882784	2273.992673992674	-0.916030534351145	2.610687022900763	0.04580152671755725	-0.8154545454545454	-0.04272727272727272	0.4683673469387756
63731982935.90501	0.1807228915662651	0.1686746987951807	-9.506024096385543	2783.150183150183	2279.120879120879	-0.7633587786259541	2.519083969465649	0.06106870229007633	-0.7927272727272727	-0.02909090909090909	0.4755102040816327
63731982935.9099	0.1807228915662651	0.1686746987951807	-9.506024096385543	2783.150183150183	2280.58608058608	-0.9465648854961831	2.488549618320611	0.0916030534351145	-0.8100000000000001	-0.03363636363636364	0.476530612244898
63731982935.91478	0.1807228915662651	0.1686746987951807	-9.518072289156628	2783.882783882784	2275.457875457875	-0.916030534351145	2.625954198473282	0.04580152671755725	-0.8090909090909091	-0.04363636363636364	0.4704081632653062
63731982935.91966	0.1686746987951807	0.1807228915662651	-9.518072289156628	2783.150183150183	2279.120879120879	-0.8854961832061068	2.33587786259542	0.07633587786259542	-0.8145454545454546	-0.04363636363636364	0.4714285714285715
63731982935.92455	0.1686746987951807	0.1927710843373494	-9.506024096385543	2783.150183150183	2280.58608058608	-0.9312977099236641	2.427480916030534	0.06106870229007633	-0.8136363636363636	-0.03454545454545455	0.4755102040816327
63731982935.92943	0.1807228915662651	0.1686746987951807	-9.493975903614459	2783.150183150183	2281.318681318681	-1.022900763358779	2.519083969465649	0.06106870229007633	-0.8054545454545454	-0.04545454545454546	0.4693877551020408
63731982935.93431	0.1566265060240964	0.1927710843373494	-9.493975903614459	2783.150183150183	2281.318681318681	-0.7633587786259541	2.564885496183206	0.04580152671755725	-0.8163636363636364	-0.04909090909090909	0.4744897959183674
63731982935.93919	0.1686746987951807	0.1927710843373494	-9.481927710843374	2782.417582417582	2274.725274725275	-0.8549618320610687	2.564885496183206	0.07633587786259542	-0.8118181818181818	-0.05272727272727273	0.4704081632653062
63731982935.94408	0.1927710843373494	0.1566265060240964	-9.518072289156628	2783.150183150183	2279.120879120879	-0.7938931297709924	2.488549618320611	0.1221374045801527	-0.8081818181818182	-0.03818181818181818	0.4734693877551021
63731982935.94896	0.1686746987951807	0.1686746987951807	-9.506024096385543	2783.150183150183	2280.58608058608	-0.8244274809160305	2.488549618320611	-0.01526717557251908	-0.8109090909090909	-0.04363636363636364	0.4744897959183674
63731982935.95384	0.1927710843373494	0.1807228915662651	-9.518072289156628	2783.150183150183	2280.58608058608	-0.9923664122137404	2.427480916030534	0	-0.8118181818181818	-0.04272727272727272	0.4785714285714286
63731982935.95872	0.1807228915662651	0.2048192771084338	-9.518072289156628	2783.150183150183	2281.318681318681	-0.8244274809160305	2.427480916030534	0.1526717557251908	-0.8081818181818182	-0.04090909090909091	0.476530612244898
63731982935.96361	0.1807228915662651	0.2048192771084338	-9.506024096385543	2782.417582417582	2274.725274725275	-0.7480916030534351	2.625954198473282	-0.06106870229007633	-0.8100000000000001	-0.03727272727272727	0.4734693877551021
63731982935.96849	0.1686746987951807	0.1927710843373494	-9.506024096385543	2782.417582417582	2273.260073260073	-0.9312977099236641	2.458015267175572	0.1068702290076336	-0.8072727272727273	-0.03545454545454545	0.4714285714285715
63731982935.97337	0.1566265060240964	0.2048192771084338	-9.506024096385543	2782.417582417582	2272.527472527473	-0.8854961832061068	2.396946564885496	0.07633587786259542	-0.8027272727272727	-0.03727272727272727	0.4673469387755103
63731982935.97826	0.1807228915662651	0.1927710843373494	-9.481927710843374	2781.684981684982	2271.794871794872	-0.8091603053435115	2.717557251908397	0.03053435114503817	-0.8100000000000001	-0.03909090909090909	0.4734693877551021
63731982935.98314	0.1807228915662651	0.1807228915662651	-9.493975903614459	2781.684981684982	2271.062271062271	-0.8549618320610687	2.625954198473282	-0.01526717557251908	-0.8118181818181818	-0.04727272727272727	0.4734693877551021
63731982935.98802	0.1686746987951807	0.1686746987951807	-9.493975903614459	2780.952380952381	2265.201465201465	-0.732824427480916	2.656488549618321	0.03053435114503817	-0.8072727272727273	-0.05272727272727273	0.4673469387755103
63731982935.9929	0.1686746987951807	0.1807228915662651	-9.518072289156628	2780.952380952381	2263.003663003663	-0.7480916030534351	2.320610687022901	-0.04580152671755725	-0.8036363636363636	-0.03454545454545455	0.4734693877551021
63731982935.99779	0.1686746987951807	0.1686746987951807	-9.518072289156628	2780.952380952381	2262.271062271062	-0.8396946564885496	2.458015267175572	0.0916030534351145	-0.8145454545454546	-0.04090909090909091	0.4744897959183674
63731982936.00267	0.1807228915662651	0.1686746987951807	-9.518072289156628	2780.952380952381	2262.271062271062	-0.7786259541984732	2.625954198473282	-0.04580152671755725	-0.8072727272727273	-0.04545454545454546	0.4734693877551021
63731982936.00755	0.1807228915662651	0.1566265060240964	-9.506024096385543	2780.21978021978	2268.131868131868	-0.6717557251908397	2.580152671755725	0.06106870229007633	-0.8009090909090909	-0.04272727272727272	0.4673469387755103
63731982936.01244	0.1807228915662651	0.1445783132530121	-9.493975903614459	2780.952380952381	2263.736263736263	-0.732824427480916	2.458015267175572	0.1221374045801527	-0.8109090909090909	-0.04272727272727272	0.4673469387755103
63731982936.01732	0.1807228915662651	0.1566265060240964	-9.518072289156628	2780.952380952381	2263.003663003663	-0.9007633587786259	2.488549618320611	0.1374045801526718	-0.8018181818181818	-0.03	0.4714285714285715
63731982936.0222	0.1927710843373494	0.1807228915662651	-9.518072289156628	2781.684981684982	2268.864468864469	-0.8244274809160305	2.442748091603054	0.04580152671755725	-0.8109090909090909	-0.04545454545454546	0.4683673469387756
63731982936.02708	0.1807228915662651	0.2168674698795181	-9.506024096385543	2781.684981684982	2270.32967032967	-0.6870229007633587	2.519083969465649	0.1374045801526718	-0.8145454545454546	-0.04363636363636364	0.4714285714285715
63731982936.03197	0.1807228915662651	0.2409638554216867	-9.493975903614459	2782.417582417582	2272.527472527473	-1.007633587786259	2.320610687022901	0.1526717557251908	-0.8054545454545454	-0.03454545454545455	0.4683673469387756
63731982936.03685	0.1566265060240964	0.2289156626506024	-9.493975903614459	2783.150183150183	2278.388278388278	-0.9007633587786259	2.198473282442748	0.183206106870229	-0.8045454545454546	-0.04	0.4683673469387756
63731982936.04173	0.1686746987951807	0.2168674698795181	-9.506024096385543	2783.150183150183	2280.58608058608	-0.7786259541984732	2.519083969465649	0.0916030534351145	-0.8081818181818182	-0.04272727272727272	0.4683673469387756
63731982936.04662	0.1807228915662651	0.1927710843373494	-9.506024096385543	2783.882783882784	2275.457875457875	-0.8396946564885496	2.442748091603054	0.03053435114503817	-0.8154545454545454	-0.04363636363636364	0.4734693877551021
63731982936.0515	0.1927710843373494	0.1927710843373494	-9.493975903614459	2783.882783882784	2273.992673992674	-0.8091603053435115	2.610687022900763	-0.07633587786259542	-0.8127272727272727	-0.05272727272727273	0.4663265306122449
63731982936.05638	0.1807228915662651	0.1686746987951807	-9.493975903614459	2783.882783882784	2273.992673992674	-0.8244274809160305	2.595419847328244	-0.04580152671755725	-0.8109090909090909	-0.04181818181818182	0.4724489795918368
63731982936.06126	0.1927710843373494	0.1566265060240964	-9.506024096385543	2783.150183150183	2279.120879120879	-0.7480916030534351	2.671755725190839	0.1679389312977099	-0.8136363636363636	-0.04454545454545455	0.4693877551020408
63731982936.06615	0.1566265060240964	0.1566265060240964	-9.518072289156628	2783.150183150183	2280.58608058608	-0.7175572519083969	2.534351145038168	0.04580152671755725	-0.8136363636363636	-0.05272727272727273	0.4693877551020408
63731982936.07103	0.1807228915662651	0.1686746987951807	-9.506024096385543	2783.150183150183	2280.58608058608	-0.8244274809160305	2.503816793893129	-0.04580152671755725	-0.8081818181818182	-0.04727272727272727	0.4642857142857143
63731982936.07591	0.1566265060240964	0.1566265060240964	-9.530120481927712	2783.150183150183	2281.318681318681	-0.8854961832061068	2.625954198473282	0.1068702290076336	-0.8100000000000001	-0.04454545454545455	0.4734693877551021
63731982936.0808	0.1807228915662651	0.1445783132530121	-9.506024096385543	2783.150183150183	2281.318681318681	-0.7480916030534351	2.549618320610687	0.2748091603053435	-0.7981818181818182	-0.02909090909090909	0.476530612244898
63731982936.08568	0.1807228915662651	0.1686746987951807	-9.518072289156628	2782.417582417582	2274.725274725275	-0.9770992366412213	2.534351145038168	0.1526717557251908	-0.8127272727272727	-0.04727272727272727	0.4683673469387756
63731982936.09056	0.1927710843373494	0.1686746987951807	-9.506024096385543	2783.150183150183	2279.120879120879	-0.8091603053435115	2.503816793893129	0	-0.8045454545454546	-0.03636363636363636	0.4714285714285715
63731982936.09544	0.1927710843373494	0.1807228915662651	-9.506024096385543	2783.150183150183	2280.58608058608	-0.9007633587786259	2.549618320610687	0.1068702290076336	-0.8018181818181818	-0.04363636363636364	0.4673469387755103
63731982936.10033	0.1807228915662651	0.2048192771084338	-9.518072289156628	2783.150183150183	2281.318681318681	-0.916030534351145	2.503816793893129	0.1221374045801527	-0.8090909090909091	-0.04363636363636364	0.4683673469387756
63731982936.10521	0.1686746987951807	0.1927710843373494	-9.506024096385543	2783.150183150183	2280.58608058608	-0.7480916030534351	2.458015267175572	-0.06106870229007633	-0.8054545454545454	-0.04454545454545455	0.4755102040816327
63731982936.11009	0.1927710843373494	0.2048192771084338	-9.506024096385543	2783.150183150183	2281.318681318681	-0.6717557251908397	2.503816793893129	0.1526717557251908	-0.8109090909090909	-0.03636363636363636	0.4724489795918368
63731982936.11497	0.1686746987951807	0.2048192771084338	-9.493975903614459	2783.150183150183	2281.318681318681	-0.6717557251908397	2.549618320610687	0.1068702290076336	-0.8172727272727273	-0.04818181818181818	0.4653061224489796
63731982936.11986	0.1686746987951807	0.1807228915662651	-9.506024096385543	2783.150183150183	2281.318681318681	-0.8854961832061068	2.595419847328244	0.1984732824427481	-0.8063636363636364	-0.04272727272727272	0.4693877551020408
63731982936.12474	0.1686746987951807	0.1807228915662651	-9.506024096385543	2783.150183150183	2281.318681318681	-0.8396946564885496	2.488549618320611	0.01526717557251908	-0.8145454545454546	-0.04363636363636364	0.4714285714285715
63731982936.12962	0.1927710843373494	0.1807228915662651	-9.518072289156628	2782.417582417582	2274.725274725275	-0.732824427480916	2.534351145038168	0.1374045801526718	-0.8136363636363636	-0.05454545454545454	0.4673469387755103
63731982936.13451	0.1807228915662651	0.1686746987951807	-9.481927710843374	2783.150183150183	2279.120879120879	-0.6870229007633587	2.702290076335878	0.04580152671755725	-0.8090909090909091	-0.04818181818181818	0.4734693877551021
63731982936.13939	0.1686746987951807	0.1686746987951807	-9.493975903614459	2783.150183150183	2280.58608058608	-0.8702290076335878	2.534351145038168	-0.1526717557251908	-0.8081818181818182	-0.05272727272727273	0.4734693877551021
63731982936.14427	0.1686746987951807	0.1566265060240964	-9.506024096385543	2783.150183150183	2280.58608058608	-0.7175572519083969	2.366412213740458	0.1526717557251908	-0.8054545454545454	-0.03454545454545455	0.4683673469387756
63731982936.14915	0.1927710843373494	0.1686746987951807	-9.518072289156628	2783.150183150183	2280.58608058608	-0.6564885496183206	2.503816793893129	0.183206106870229	-0.8045454545454546	-0.04363636363636364	0.4714285714285715
63731982936.15404	0.1686746987951807	0.1807228915662651	-9.518072289156628	2782.417582417582	2274.725274725275	-0.7786259541984732	2.503816793893129	0.1374045801526718	-0.8090909090909091	-0.04454545454545455	0.4673469387755103
63731982936.15892	0.1686746987951807	0.1807228915662651	-9.506024096385543	2782.417582417582	2273.260073260073	-0.8396946564885496	2.519083969465649	-0.07633587786259542	-0.8063636363636364	-0.05181818181818182	0.4704081632653062
63731982936.1638	0.1807228915662651	0.1807228915662651	-9.518072289156628	2781.684981684982	2271.794871794872	-0.732824427480916	2.656488549618321	0.04580152671755725	-0.8072727272727273	-0.03727272727272727	0.4663265306122449
63731982936.16869	0.1927710843373494	0.2048192771084338	-9.506024096385543	2780.952380952381	2265.201465201465	-1.068702290076336	2.549618320610687	0	-0.8100000000000001	-0.04090909090909091	0.4663265306122449
63731982936.17357	0.1686746987951807	0.1927710843373494	-9.506024096385543	2780.21978021978	2268.131868131868	-0.7633587786259541	2.427480916030534	-0.01526717557251908	-0.8100000000000001	-0.04545454545454546	0.4724489795918368
63731982936.17845	0.2048192771084338	0.1807228915662651	-9.518072289156628	2780.21978021978	2269.59706959707	-0.6106870229007634	2.442748091603054	-0.1374045801526718	-0.8163636363636364	-0.05363636363636363	0.4724489795918368
63731982936.18333	0.1807228915662651	0.1807228915662651	-9.518072289156628	2780.21978021978	2269.59706959707	-0.7480916030534351	2.564885496183206	-0.03053435114503817	-0.8063636363636364	-0.05090909090909091	0.4693877551020408
63731982936.18822	0.1807228915662651	0.1686746987951807	-9.518072289156628	2780.21978021978	2270.32967032967	-0.9007633587786259	2.580152671755725	0.1221374045801527	-0.8081818181818182	-0.04636363636363636	0.4724489795918368
63731982936.1931	0.1807228915662651	0.1686746987951807	-9.518072289156628	2781.684981684982	2270.32967032967	-0.8549618320610687	2.580152671755725	0.04580152671755725	-0.8145454545454546	-0.05181818181818182	0.4734693877551021
63731982936.19798	0.1807228915662651	0.1566265060240964	-9.518072289156628	2782.417582417582	2272.527472527473	-0.8549618320610687	2.473282442748092	0.07633587786259542	-0.8145454545454546	-0.05272727272727273	0.4663265306122449
63731982936.20287	0.1566265060240964	0.1807228915662651	-9.518072289156628	2783.882783882784	2273.260073260073	-0.6717557251908397	2.519083969465649	0.1374045801526718	-0.8081818181818182	-0.03818181818181818	0.4673469387755103
63731982936.20775	0.1566265060240964	0.1807228915662651	-9.518072289156628	2783.882783882784	2273.992673992674	-0.9923664122137404	2.549618320610687	0.1526717557251908	-0.8136363636363636	-0.05181818181818182	0.4693877551020408
63731982936.21263	0.1686746987951807	0.1807228915662651	-9.493975903614459	2783.150183150183	2279.120879120879	-0.7938931297709924	2.549618320610687	0.1984732824427481	-0.8054545454545454	-0.03818181818181818	0.4785714285714286
63731982936.21751	0.1807228915662651	0.1807228915662651	-9.493975903614459	2783.150183150183	2280.58608058608	-0.6717557251908397	2.442748091603054	-0.03053435114503817	-0.8063636363636364	-0.03727272727272727	0.4714285714285715
63731982936.2224	0.1686746987951807	0.1927710843373494	-9.493975903614459	2783.150183150183	2280.58608058608	-0.8396946564885496	2.427480916030534	0.1068702290076336	-0.8072727272727273	-0.04181818181818182	0.4704081632653062
63731982936.22728	0.1807228915662651	0.1686746987951807	-9.506024096385543	2783.150183150183	2281.318681318681	-0.6564885496183206	2.564885496183206	-0.0916030534351145	-0.8118181818181818	-0.04181818181818182	0.4714285714285715
63731982936.23216	0.1807228915662651	0.1927710843373494	-9.506024096385543	2783.150183150183	2281.318681318681	-0.6870229007633587	2.503816793893129	-0.01526717557251908	-0.8081818181818182	-0.03181818181818181	0.4704081632653062
63731982936.23705	0.1807228915662651	0.1927710843373494	-9.518072289156628	2783.150183150183	2281.318681318681	-0.8244274809160305	2.473282442748092	-0.03053435114503817	-0.8109090909090909	-0.04545454545454546	0.476530612244898
63731982936.24193	0.1927710843373494	0.1927710843373494	-9.493975903614459	2783.150183150183	2281.318681318681	-0.8854961832061068	2.519083969465649	0.06106870229007633	-0.8063636363636364	-0.05545454545454546	0.4693877551020408
63731982936.24681	0.1927710843373494	0.1807228915662651	-9.493975903614459	2782.417582417582	2274.725274725275	-0.7022900763358778	2.641221374045801	0.01526717557251908	-0.8036363636363636	-0.03181818181818181	0.4744897959183674
63731982936.25169	0.2048192771084338	0.1686746987951807	-9.493975903614459	2783.150183150183	2279.120879120879	-0.7480916030534351	2.503816793893129	0.2137404580152672	-0.8109090909090909	-0.04	0.4734693877551021
63731982936.25658	0.1807228915662651	0.1686746987951807	-9.518072289156628	2783.150183150183	2280.58608058608	-0.8244274809160305	2.549618320610687	0	-0.8090909090909091	-0.03545454545454545	0.4755102040816327
63731982936.26146	0.1927710843373494	0.1686746987951807	-9.530120481927712	2782.417582417582	2274.725274725275	-0.6564885496183206	2.549618320610687	0.1221374045801527	-0.8090909090909091	-0.03454545454545455	0.4744897959183674
63731982936.26634	0.1927710843373494	0.1927710843373494	-9.506024096385543	2782.417582417582	2273.260073260073	-0.7633587786259541	2.503816793893129	-0.01526717557251908	-0.8127272727272727	-0.04181818181818182	0.4683673469387756
63731982936.27122	0.1807228915662651	0.1927710843373494	-9.493975903614459	2782.417582417582	2272.527472527473	-0.8702290076335878	2.519083969465649	0.1679389312977099	-0.8045454545454546	-0.04090909090909091	0.4714285714285715
63731982936.27611	0.1566265060240964	0.1927710843373494	-9.506024096385543	2781.684981684982	2271.794871794872	-0.9618320610687022	2.519083969465649	0.2442748091603053	-0.8063636363636364	-0.03363636363636364	0.4744897959183674
63731982936.28099	0.1686746987951807	0.1807228915662651	-9.518072289156628	2781.684981684982	2271.062271062271	-0.7480916030534351	2.595419847328244	0.07633587786259542	-0.8090909090909091	-0.04636363636363636	0.476530612244898
63731982936.28587	0.1686746987951807	0.1807228915662651	-9.493975903614459	2780.952380952381	2264.468864468864	-0.8549618320610687	2.442748091603054	0.04580152671755725	-0.8100000000000001	-0.04363636363636364	0.4734693877551021
63731982936.29076	0.1686746987951807	0.1927710843373494	-9.493975903614459	2780.21978021978	2268.131868131868	-0.7938931297709924	2.534351145038168	0.07633587786259542	-0.8045454545454546	-0.04909090909090909	0.4704081632653062
63731982936.29564	0.1807228915662651	0.1927710843373494	-9.506024096385543	2780.21978021978	2269.59706959707	-0.6717557251908397	2.503816793893129	0.06106870229007633	-0.8063636363636364	-0.03909090909090909	0.4693877551020408
63731982936.30052	0.1686746987951807	0.1807228915662651	-9.493975903614459	2780.952380952381	2264.468864468864	-0.9312977099236641	2.396946564885496	0.06106870229007633	-0.8018181818181818	-0.04272727272727272	0.4734693877551021
63731982936.3054	0.1807228915662651	0.1807228915662651	-9.518072289156628	2780.952380952381	2263.003663003663	-0.916030534351145	2.503816793893129	0.1221374045801527	-0.8045454545454546	-0.04727272727272727	0.4714285714285715
63731982936.31029	0.1807228915662651	0.1807228915662651	-9.506024096385543	2782.417582417582	2269.59706959707	-0.7938931297709924	2.671755725190839	0.03053435114503817	-0.8063636363636364	-0.04363636363636364	0.4693877551020408
63731982936.31517	0.1927710843373494	0.1686746987951807	-9.506024096385543	2782.417582417582	2271.794871794872	-0.7786259541984732	2.503816793893129	0.1221374045801527	-0.8136363636363636	-0.04363636363636364	0.4704081632653062
63731982936.32005	0.1807228915662651	0.1686746987951807	-9.506024096385543	2783.150183150183	2278.388278388278	-0.7786259541984732	2.549618320610687	0	-0.8109090909090909	-0.05454545454545454	0.4693877551020408
63731982936.32494	0.1927710843373494	0.1566265060240964	-9.518072289156628	2783.150183150183	2280.58608058608	-0.7938931297709924	2.549618320610687	0	-0.8027272727272727	-0.05	0.4704081632653062
63731982936.32982	0.1927710843373494	0.1807228915662651	-9.518072289156628	2783.882783882784	2275.457875457875	-0.7633587786259541	2.458015267175572	-0.06106870229007633	-0.8081818181818182	-0.04818181818181818	0.4714285714285715
63731982936.3347	0.1807228915662651	0.1927710843373494	-9.518072289156628	2783.150183150183	2279.120879120879	-0.9007633587786259	2.503816793893129	0.0916030534351145	-0.8090909090909091	-0.03272727272727273	0.4785714285714286
63731982936.33958	0.1807228915662651	0.1807228915662651	-9.481927710843374	2783.150183150183	2280.58608058608	-0.8091603053435115	2.564885496183206	0.04580152671755725	-0.8090909090909091	-0.04636363636363636	0.476530612244898
63731982936.34447	0.1807228915662651	0.1807228915662651	-9.506024096385543	2782.417582417582	2274.725274725275	-0.8396946564885496	2.610687022900763	-0.0916030534351145	-0.8045454545454546	-0.04363636363636364	0.4642857142857143
63731982936.34935	0.1566265060240964	0.1927710843373494	-9.493975903614459	2783.150183150183	2279.120879120879	-0.8702290076335878	2.427480916030534	-0.0916030534351145	-0.8063636363636364	-0.04272727272727272	0.4714285714285715
63731982936.35423	0.1807228915662651	0.1927710843373494	-9.493975903614459	2783.150183150183	2280.58608058608	-0.5190839694656488	2.534351145038168	0.04580152671755725	-0.8018181818181818	-0.03727272727272727	0.4673469387755103
63731982936.35912	0.1686746987951807	0.1807228915662651	-9.493975903614459	2783.150183150183	2280.58608058608	-0.7938931297709924	2.641221374045801	0.1068702290076336	-0.8063636363636364	-0.04909090909090909	0.4683673469387756
63731982936.364	0.1807228915662651	0.1807228915662651	-9.493975903614459	2783.150183150183	2280.58608058608	-0.8091603053435115	2.381679389312977	0.1526717557251908	-0.8109090909090909	-0.04090909090909091	0.476530612244898
63731982936.36888	0.1686746987951807	0.1807228915662651	-9.506024096385543	2782.417582417582	2274.725274725275	-0.7633587786259541	2.458015267175572	0.01526717557251908	-0.8154545454545454	-0.05181818181818182	0.4693877551020408
63731982936.37376	0.1807228915662651	0.1807228915662651	-9.530120481927712	2783.150183150183	2279.120879120879	-0.6106870229007634	2.274809160305344	0.06106870229007633	-0.8127272727272727	-0.04727272727272727	0.4693877551020408
63731982936.37865	0.2048192771084338	0.1566265060240964	-9.518072289156628	2782.417582417582	2273.992673992674	-0.7022900763358778	2.503816793893129	0.1068702290076336	-0.8090909090909091	-0.04363636363636364	0.4704081632653062
63731982936.38353	0.1927710843373494	0.1566265060240964	-9.518072289156628	2783.150183150183	2279.120879120879	-0.7633587786259541	2.290076335877862	0	-0.8118181818181818	-0.04818181818181818	0.4734693877551021
63731982936.38841	0.2048192771084338	0.1686746987951807	-9.506024096385543	2783.150183150183	2280.58608058608	-0.7022900763358778	2.580152671755725	0.06106870229007633	-0.8109090909090909	-0.03818181818181818	0.4704081632653062
63731982936.3933	0.1686746987951807	0.1807228915662651	-9.530120481927712	2782.417582417582	2274.725274725275	-0.732824427480916	2.442748091603054	0.07633587786259542	-0.8018181818181818	-0.02636363636363636	0.4744897959183674
63731982936.39818	0.1807228915662651	0.2048192771084338	-9.493975903614459	2782.417582417582	2273.260073260073	-0.8549618320610687	2.519083969465649	-0.04580152671755725	-0.8018181818181818	-0.05272727272727273	0.4724489795918368
63731982936.40306	0.1807228915662651	0.1807228915662651	-9.506024096385543	2782.417582417582	2272.527472527473	-0.7786259541984732	2.610687022900763	0.1374045801526718	-0.8118181818181818	-0.04454545454545455	0.4744897959183674
63731982936.40794	0.1686746987951807	0.1686746987951807	-9.506024096385543	2782.417582417582	2272.527472527473	-0.9618320610687022	2.473282442748092	0.04580152671755725	-0.8090909090909091	-0.04454545454545455	0.4734693877551021
63731982936.41283	0.1686746987951807	0.1807228915662651	-9.506024096385543	2782.417582417582	2272.527472527473	-0.8396946564885496	2.564885496183206	0.03053435114503817	-0.8127272727272727	-0.04818181818181818	0.4704081632653062
63731982936.41771	0.1686746987951807	0.1927710843373494	-9.493975903614459	2782.417582417582	2272.527472527473	-0.9007633587786259	2.488549618320611	0.1374045801526718	-0.8081818181818182	-0.04818181818181818	0.476530612244898
63731982936.42259	0.1566265060240964	0.1927710843373494	-9.506024096385543	2782.417582417582	2272.527472527473	-0.7633587786259541	2.519083969465649	0.03053435114503817	-0.8054545454545454	-0.04363636363636364	0.4683673469387756
63731982936.42747	0.1807228915662651	0.1927710843373494	-9.493975903614459	2781.684981684982	2271.062271062271	-0.7022900763358778	2.732824427480916	0	-0.8036363636363636	-0.04181818181818182	0.4724489795918368
63731982936.43236	0.1927710843373494	0.1807228915662651	-9.530120481927712	2780.952380952381	2265.201465201465	-0.8091603053435115	2.595419847328244	0.1221374045801527	-0.8036363636363636	-0.03454545454545455	0.4744897959183674
63731982936.43724	0.1927710843373494	0.1686746987951807	-9.493975903614459	2780.952380952381	2263.003663003663	-0.7786259541984732	2.641221374045801	0.03053435114503817	-0.8045454545454546	-0.03818181818181818	0.4744897959183674
63731982936.44212	0.1927710843373494	0.1927710843373494	-9.518072289156628	2780.952380952381	2263.003663003663	-0.7480916030534351	2.702290076335878	0.06106870229007633	-0.8109090909090909	-0.04727272727272727	0.4714285714285715
63731982936.44701	0.1807228915662651	0.1927710843373494	-9.518072289156628	2780.952380952381	2262.271062271062	-0.7480916030534351	2.458015267175572	0.1526717557251908	-0.8145454545454546	-0.05090909090909091	0.4704081632653062
63731982936.45189	0.1927710843373494	0.1807228915662651	-9.506024096385543	2780.21978021978	2267.399267399267	-0.732824427480916	2.412213740458015	-0.04580152671755725	-0.8081818181818182	-0.03090909090909091	0.4775510204081633
63731982936.45677	0.1807228915662651	0.1686746987951807	-9.506024096385543	2780.21978021978	2269.59706959707	-0.7022900763358778	2.748091603053435	0.03053435114503817	-0.8100000000000001	-0.04090909090909091	0.4704081632653062
63731982936.46165	0.1807228915662651	0.1927710843373494	-9.506024096385543	2780.21978021978	2269.59706959707	-0.7786259541984732	2.473282442748092	-0.01526717557251908	-0.8027272727272727	-0.04363636363636364	0.4704081632653062
63731982936.46654	0.1807228915662651	0.1927710843373494	-9.506024096385543	2780.21978021978	2269.59706959707	-0.7480916030534351	2.458015267175572	0.1221374045801527	-0.8100000000000001	-0.05181818181818182	0.4653061224489796
63731982936.47142	0.1686746987951807	0.1807228915662651	-9.506024096385543	2780.952380952381	2264.468864468864	-0.8244274809160305	2.580152671755725	0.1679389312977099	-0.8090909090909091	-0.05454545454545454	0.4673469387755103
63731982936.4763	0.1686746987951807	0.1807228915662651	-9.493975903614459	2782.417582417582	2270.32967032967	-0.7786259541984732	2.473282442748092	0.1221374045801527	-0.8109090909090909	-0.04363636363636364	0.4755102040816327
63731982936.48119	0.1686746987951807	0.2048192771084338	-9.530120481927712	2783.150183150183	2277.655677655678	-0.7480916030534351	2.564885496183206	0.06106870229007633	-0.8063636363636364	-0.04181818181818182	0.4653061224489796
63731982936.48607	0.1927710843373494	0.1807228915662651	-9.518072289156628	2783.150183150183	2279.85347985348	-0.7022900763358778	2.458015267175572	-0.04580152671755725	-0.8063636363636364	-0.03454545454545455	0.4714285714285715
63731982936.49095	0.1686746987951807	0.1686746987951807	-9.518072289156628	2783.150183150183	2279.85347985348	-0.7022900763358778	2.717557251908397	0.01526717557251908	-0.8109090909090909	-0.04727272727272727	0.4714285714285715
63731982936.49583	0.1927710843373494	0.1807228915662651	-9.506024096385543	2783.150183150183	2280.58608058608	-0.732824427480916	2.442748091603054	0	-0.8090909090909091	-0.05363636363636363	0.4693877551020408
63731982936.50072	0.1927710843373494	0.1807228915662651	-9.518072289156628	2783.150183150183	2280.58608058608	-0.8854961832061068	2.564885496183206	0.04580152671755725	-0.8090909090909091	-0.04	0.4704081632653062
63731982936.5056	0.1927710843373494	0.1807228915662651	-9.493975903614459	2783.150183150183	2281.318681318681	-0.7633587786259541	2.396946564885496	0.07633587786259542	-0.8109090909090909	-0.04272727272727272	0.4775510204081633
63731982936.51048	0.1807228915662651	0.1686746987951807	-9.518072289156628	2782.417582417582	2274.725274725275	-0.8854961832061068	2.564885496183206	-0.1374045801526718	-0.8063636363636364	-0.05	0.4714285714285715
63731982936.51537	0.1927710843373494	0.1686746987951807	-9.506024096385543	2782.417582417582	2273.260073260073	-0.8549618320610687	2.534351145038168	0.1221374045801527	-0.8036363636363636	-0.04818181818181818	0.4734693877551021
63731982936.52025	0.1807228915662651	0.1927710843373494	-9.506024096385543	2783.150183150183	2278.388278388278	-0.6870229007633587	2.503816793893129	0.07633587786259542	-0.8100000000000001	-0.04272727272727272	0.4693877551020408
63731982936.52513	0.1807228915662651	0.1807228915662651	-9.518072289156628	2782.417582417582	2273.992673992674	-0.8396946564885496	2.503816793893129	-0.01526717557251908	-0.8145454545454546	-0.04727272727272727	0.4724489795918368
63731982936.53001	0.1807228915662651	0.1807228915662651	-9.493975903614459	2782.417582417582	2272.527472527473	-0.8702290076335878	2.488549618320611	0.07633587786259542	-0.8109090909090909	-0.04636363636363636	0.4724489795918368
63731982936.5349	0.1807228915662651	0.1807228915662651	-9.506024096385543	2783.150183150183	2278.388278388278	-0.7480916030534351	2.503816793893129	-0.01526717557251908	-0.8090909090909091	-0.04090909090909091	0.4663265306122449
63731982936.53978	0.1927710843373494	0.1807228915662651	-9.506024096385543	2782.417582417582	2273.992673992674	-0.7480916030534351	2.564885496183206	0.1221374045801527	-0.8136363636363636	-0.04272727272727272	0.4724489795918368
63731982936.54466	0.1686746987951807	0.1807228915662651	-9.506024096385543	2782.417582417582	2272.527472527473	-0.7175572519083969	2.610687022900763	0.183206106870229	-0.8136363636363636	-0.05363636363636363	0.4683673469387756
63731982936.54955	0.1807228915662651	0.1927710843373494	-9.506024096385543	2782.417582417582	2272.527472527473	-0.7480916030534351	2.564885496183206	-0.03053435114503817	-0.8100000000000001	-0.05272727272727273	0.4683673469387756
63731982936.55443	0.1686746987951807	0.1807228915662651	-9.518072289156628	2782.417582417582	2272.527472527473	-0.6259541984732824	2.458015267175572	0.03053435114503817	-0.8090909090909091	-0.04818181818181818	0.4704081632653062
63731982936.55931	0.1807228915662651	0.1807228915662651	-9.506024096385543	2782.417582417582	2272.527472527473	-0.9312977099236641	2.671755725190839	0.0916030534351145	-0.8136363636363636	-0.05	0.4724489795918368
63731982936.56419	0.2048192771084338	0.1686746987951807	-9.493975903614459	2782.417582417582	2272.527472527473	-0.7786259541984732	2.595419847328244	0.1374045801526718	-0.8154545454545454	-0.05272727272727273	0.4683673469387756
63731982936.56908	0.1927710843373494	0.1807228915662651	-9.530120481927712	2782.417582417582	2271.794871794872	-0.6564885496183206	2.534351145038168	-0.04580152671755725	-0.8100000000000001	-0.03909090909090909	0.4693877551020408
63731982936.57396	0.1807228915662651	0.1807228915662651	-9.506024096385543	2781.684981684982	2271.794871794872	-0.8244274809160305	2.412213740458015	0.1679389312977099	-0.8118181818181818	-0.05181818181818182	0.4724489795918368
63731982936.57884	0.1686746987951807	0.1686746987951807	-9.518072289156628	2781.684981684982	2271.062271062271	-0.916030534351145	2.442748091603054	0.03053435114503817	-0.8100000000000001	-0.05181818181818182	0.4704081632653062
63731982936.58372	0.1927710843373494	0.1807228915662651	-9.493975903614459	2780.952380952381	2265.201465201465	-0.8396946564885496	2.366412213740458	0.1679389312977099	-0.8109090909090909	-0.04818181818181818	0.4714285714285715
63731982936.58861	0.1807228915662651	0.1807228915662651	-9.506024096385543	2780.952380952381	2263.003663003663	-0.7633587786259541	2.473282442748092	0.1068702290076336	-0.8081818181818182	-0.03545454545454545	0.4755102040816327
63731982936.59349	0.1807228915662651	0.1807228915662651	-9.506024096385543	2780.952380952381	2262.271062271062	-0.7022900763358778	2.595419847328244	-0.01526717557251908	-0.8072727272727273	-0.03727272727272727	0.4755102040816327
63731982936.59837	0.1807228915662651	0.1927710843373494	-9.518072289156628	2780.21978021978	2267.399267399267	-0.8702290076335878	2.473282442748092	0.0916030534351145	-0.8	-0.03818181818181818	0.4724489795918368
63731982936.60326	0.1686746987951807	0.1807228915662651	-9.518072289156628	2780.21978021978	2268.864468864469	-0.8396946564885496	2.671755725190839	0.1068702290076336	-0.8145454545454546	-0.04545454545454546	0.4704081632653062
63731982936.60814	0.1927710843373494	0.1927710843373494	-9.493975903614459	2780.21978021978	2269.59706959707	-0.9312977099236641	2.473282442748092	0.03053435114503817	-0.8009090909090909	-0.02636363636363636	0.4775510204081633
63731982936.61302	0.1927710843373494	0.1807228915662651	-9.518072289156628	2779.487179487179	2263.003663003663	-0.8549618320610687	2.488549618320611	0.04580152671755725	-0.8081818181818182	-0.05272727272727273	0.4704081632653062
63731982936.6179	0.1807228915662651	0.1807228915662651	-9.530120481927712	2779.487179487179	2261.538461538461	-0.7938931297709924	2.641221374045801	-0.1526717557251908	-0.8018181818181818	-0.03	0.4714285714285715
63731982936.62279	0.2048192771084338	0.1807228915662651	-9.493975903614459	2779.487179487179	2261.538461538461	-0.7938931297709924	2.595419847328244	-0.01526717557251908	-0.8090909090909091	-0.03454545454545455	0.4734693877551021
63731982936.62767	0.1807228915662651	0.1807228915662651	-9.518072289156628	2780.21978021978	2267.399267399267	-0.7175572519083969	2.33587786259542	0.07633587786259542	-0.8045454545454546	-0.04545454545454546	0.4714285714285715
63731982936.63255	0.1807228915662651	0.1686746987951807	-9.493975903614459	2780.21978021978	2268.864468864469	-0.7938931297709924	2.534351145038168	-0.04580152671755725	-0.8145454545454546	-0.04181818181818182	0.4683673469387756
63731982936.63744	0.1927710843373494	0.1807228915662651	-9.493975903614459	2779.487179487179	2263.003663003663	-0.7938931297709924	2.503816793893129	-0.1068702290076336	-0.8009090909090909	-0.04636363636363636	0.4714285714285715
63731982936.64232	0.1566265060240964	0.1927710843373494	-9.506024096385543	2780.952380952381	2262.271062271062	-0.9923664122137404	2.381679389312977	0.0916030534351145	-0.8100000000000001	-0.04090909090909091	0.4714285714285715
63731982936.6472	0.1686746987951807	0.1807228915662651	-9.518072289156628	2781.684981684982	2268.864468864469	-0.6717557251908397	2.427480916030534	0.2442748091603053	-0.8090909090909091	-0.04636363636363636	0.4734693877551021
63731982936.65208	0.1807228915662651	0.1927710843373494	-9.518072289156628	2783.150183150183	2277.655677655678	-0.8244274809160305	2.519083969465649	0.1068702290076336	-0.8145454545454546	-0.04636363636363636	0.4693877551020408
63731982936.65697	0.1686746987951807	0.1807228915662651	-9.506024096385543	2783.150183150183	2279.85347985348	-0.9770992366412213	2.412213740458015	-0.03053435114503817	-0.8136363636363636	-0.05454545454545454	0.4693877551020408
63731982936.66185	0.1927710843373494	0.1807228915662651	-9.506024096385543	2783.150183150183	2280.58608058608	-0.6106870229007634	2.625954198473282	0.04580152671755725	-0.8090909090909091	-0.05454545454545454	0.4673469387755103
63731982936.66673	0.1686746987951807	0.1807228915662651	-9.518072289156628	2783.150183150183	2281.318681318681	-0.8244274809160305	2.442748091603054	0	-0.8118181818181818	-0.04818181818181818	0.4714285714285715
63731982936.67162	0.1807228915662651	0.1807228915662651	-9.506024096385543	2783.150183150183	2280.58608058608	-0.7175572519083969	2.595419847328244	0.1068702290076336	-0.8127272727272727	-0.05181818181818182	0.4683673469387756
63731982936.6765	0.1807228915662651	0.1686746987951807	-9.506024096385543	2783.150183150183	2281.318681318681	-0.9007633587786259	2.473282442748092	0.1374045801526718	-0.8072727272727273	-0.03909090909090909	0.4714285714285715
63731982936.68138	0.1807228915662651	0.1686746987951807	-9.506024096385543	2782.417582417582	2275.457875457875	-0.732824427480916	2.473282442748092	-0.1068702290076336	-0.8109090909090909	-0.04090909090909091	0.4693877551020408
63731982936.68626	0.1807228915662651	0.1807228915662651	-9.530120481927712	2782.417582417582	2273.260073260073	-0.8396946564885496	2.412213740458015	0.1068702290076336	-0.8018181818181818	-0.03363636363636364	0.4693877551020408
63731982936.69115	0.1807228915662651	0.1686746987951807	-9.506024096385543	2782.417582417582	2272.527472527473	-0.8091603053435115	2.549618320610687	0	-0.8054545454545454	-0.05272727272727273	0.4642857142857143
63731982936.69603	0.1807228915662651	0.1807228915662651	-9.518072289156628	2782.417582417582	2271.794871794872	-0.7480916030534351	2.488549618320611	0.2442748091603053	-0.8127272727272727	-0.04636363636363636	0.4673469387755103
63731982936.70091	0.1807228915662651	0.1807228915662651	-9.506024096385543	2782.417582417582	2272.527472527473	-0.8091603053435115	2.564885496183206	0.1221374045801527	-0.8036363636363636	-0.03727272727272727	0.4653061224489796
63731982936.7058	0.1927710843373494	0.1927710843373494	-9.518072289156628	2782.417582417582	2272.527472527473	-0.7480916030534351	2.549618320610687	0.07633587786259542	-0.8136363636363636	-0.04636363636363636	0.4693877551020408
63731982936.71068	0.1927710843373494	0.1927710843373494	-9.506024096385543	2782.417582417582	2272.527472527473	-0.9007633587786259	2.534351145038168	-0.03053435114503817	-0.8081818181818182	-0.04181818181818182	0.4724489795918368
63731982936.71556	0.1686746987951807	0.1807228915662651	-9.506024096385543	2782.417582417582	2272.527472527473	-0.732824427480916	2.564885496183206	0.07633587786259542	-0.8136363636363636	-0.04545454545454546	0.4724489795918368
63731982936.72044	0.1807228915662651	0.1686746987951807	-9.506024096385543	2782.417582417582	2272.527472527473	-0.6564885496183206	2.564885496183206	0.06106870229007633	-0.8109090909090909	-0.05090909090909091	0.4693877551020408
63731982936.72533	0.1807228915662651	0.1927710843373494	-9.506024096385543	2782.417582417582	2272.527472527473	-0.7938931297709924	2.564885496183206	0.03053435114503817	-0.8090909090909091	-0.05272727272727273	0.4693877551020408
63731982936.73021	0.1807228915662651	0.1807228915662651	-9.518072289156628	2782.417582417582	2272.527472527473	-0.7480916030534351	2.503816793893129	0.1221374045801527	-0.8100000000000001	-0.04272727272727272	0.4734693877551021
63731982936.73509	0.1686746987951807	0.1807228915662651	-9.493975903614459	2782.417582417582	2272.527472527473	-0.7938931297709924	2.396946564885496	0.1984732824427481	-0.8154545454545454	-0.05272727272727273	0.4724489795918368
63731982936.73997	0.1807228915662651	0.1807228915662651	-9.493975903614459	2781.684981684982	2271.062271062271	-0.7022900763358778	2.442748091603054	-0.06106870229007633	-0.8109090909090909	-0.04909090909090909	0.4704081632653062
63731982936.74486	0.1807228915662651	0.2048192771084338	-9.481927710843374	2781.684981684982	2271.062271062271	-0.9312977099236641	2.366412213740458	0.1068702290076336	-0.8081818181818182	-0.03727272727272727	0.4755102040816327
63731982936.74974	0.1807228915662651	0.1807228915662651	-9.506024096385543	2781.684981684982	2271.062271062271	-0.7633587786259541	2.412213740458015	0.04580152671755725	-0.8072727272727273	-0.04636363636363636	0.4693877551020408
63731982936.75462	0.1927710843373494	0.1807228915662651	-9.518072289156628	2781.684981684982	2271.062271062271	-0.732824427480916	2.687022900763359	0.06106870229007633	-0.8045454545454546	-0.04272727272727272	0.4755102040816327
63731982936.75951	0.1927710843373494	0.1686746987951807	-9.518072289156628	2782.417582417582	2271.794871794872	-0.7175572519083969	2.610687022900763	0.1679389312977099	-0.8109090909090909	-0.04181818181818182	0.4734693877551021
63731982936.76439	0.1927710843373494	0.1807228915662651	-9.518072289156628	2781.684981684982	2271.794871794872	-0.8091603053435115	2.519083969465649	0.04580152671755725	-0.8136363636363636	-0.05454545454545454	0.4724489795918368
63731982936.76927	0.1927710843373494	0.1807228915662651	-9.518072289156628	2781.684981684982	2271.062271062271	-0.8702290076335878	2.458015267175572	0.1374045801526718	-0.8027272727272727	-0.05363636363636363	0.4673469387755103
63731982936.77415	0.1566265060240964	0.1566265060240964	-9.481927710843374	2780.952380952381	2265.201465201465	-0.8396946564885496	2.534351145038168	0.04580152671755725	-0.8081818181818182	-0.03363636363636364	0.4714285714285715
63731982936.77904	0.1686746987951807	0.1807228915662651	-9.481927710843374	2780.21978021978	2268.864468864469	-0.8702290076335878	2.564885496183206	0.01526717557251908	-0.8118181818181818	-0.04727272727272727	0.4704081632653062
63731982936.78392	0.1686746987951807	0.1686746987951807	-9.518072289156628	2780.21978021978	2269.59706959707	-1.007633587786259	2.488549618320611	0.1068702290076336	-0.8081818181818182	-0.04181818181818182	0.4704081632653062
63731982936.7888	0.1566265060240964	0.2048192771084338	-9.518072289156628	2779.487179487179	2263.003663003663	-0.8091603053435115	2.519083969465649	-0.1221374045801527	-0.8072727272727273	-0.04727272727272727	0.4744897959183674
63731982936.79369	0.1566265060240964	0.1927710843373494	-9.481927710843374	2779.487179487179	2261.538461538461	-0.7480916030534351	2.442748091603054	0.07633587786259542	-0.8045454545454546	-0.05363636363636363	0.4734693877551021
63731982936.79857	0.1686746987951807	0.2048192771084338	-9.506024096385543	2779.487179487179	2260.80586080586	-0.6717557251908397	2.488549618320611	0.07633587786259542	-0.8100000000000001	-0.03090909090909091	0.4785714285714286
63731982936.80345	0.1807228915662651	0.2168674698795181	-9.506024096385543	2779.487179487179	2260.80586080586	-0.6564885496183206	2.519083969465649	0.0916030534351145	-0.8100000000000001	-0.04636363636363636	0.4724489795918368
63731982936.80833	0.2048192771084338	0.1807228915662651	-9.493975903614459	2779.487179487179	2260.80586080586	-0.7633587786259541	2.549618320610687	-0.03053435114503817	-0.8	-0.03818181818181818	0.4724489795918368
63731982936.81322	0.2168674698795181	0.1686746987951807	-9.518072289156628	2780.21978021978	2267.399267399267	-0.7022900763358778	2.610687022900763	0.1526717557251908	-0.8063636363636364	-0.05	0.4734693877551021
63731982936.8181	0.1927710843373494	0.1807228915662651	-9.518072289156628	2780.21978021978	2268.864468864469	-0.9618320610687022	2.656488549618321	0	-0.8118181818181818	-0.03818181818181818	0.4714285714285715
63731982936.82298	0.1927710843373494	0.1686746987951807	-9.506024096385543	2780.21978021978	2269.59706959707	-0.8396946564885496	2.641221374045801	0	-0.8090909090909091	-0.03272727272727273	0.4734693877551021
63731982936.82787	0.2048192771084338	0.1927710843373494	-9.518072289156628	2780.21978021978	2269.59706959707	-0.7786259541984732	2.549618320610687	0.06106870229007633	-0.8127272727272727	-0.04363636363636364	0.4744897959183674
63731982936.83275	0.1807228915662651	0.1927710843373494	-9.493975903614459	2780.952380952381	2264.468864468864	-0.6870229007633587	2.549618320610687	-0.04580152671755725	-0.8127272727272727	-0.05454545454545454	0.4704081632653062
63731982936.83763	0.1566265060240964	0.1686746987951807	-9.506024096385543	2780.952380952381	2263.003663003663	-0.8396946564885496	2.503816793893129	0.07633587786259542	-0.8118181818181818	-0.04545454545454546	0.476530612244898
63731982936.84251	0.1686746987951807	0.1807228915662651	-9.506024096385543	2781.684981684982	2268.864468864469	-0.564885496183206	2.595419847328244	0.0916030534351145	-0.8109090909090909	-0.03727272727272727	0.4724489795918368
63731982936.8474	0.1566265060240964	0.1927710843373494	-9.493975903614459	2782.417582417582	2271.062271062271	-1.022900763358779	2.366412213740458	0.04580152671755725	-0.8072727272727273	-0.04727272727272727	0.4724489795918368
63731982936.85228	0.1807228915662651	0.1686746987951807	-9.493975903614459	2782.417582417582	2271.794871794872	-0.9618320610687022	2.549618320610687	0.1068702290076336	-0.8090909090909091	-0.04	0.4704081632653062
63731982936.85716	0.1807228915662651	0.1927710843373494	-9.518072289156628	2782.417582417582	2272.527472527473	-0.6870229007633587	2.519083969465649	0.1221374045801527	-0.8145454545454546	-0.04545454545454546	0.4744897959183674
63731982936.86205	0.1927710843373494	0.1927710843373494	-9.518072289156628	2782.417582417582	2272.527472527473	-0.8702290076335878	2.656488549618321	0.04580152671755725	-0.8118181818181818	-0.05272727272727273	0.4683673469387756
63731982936.86693	0.1807228915662651	0.1927710843373494	-9.506024096385543	2782.417582417582	2272.527472527473	-0.7938931297709924	2.534351145038168	-0.01526717557251908	-0.8081818181818182	-0.05272727272727273	0.4693877551020408
63731982936.87181	0.1927710843373494	0.1807228915662651	-9.506024096385543	2782.417582417582	2272.527472527473	-0.8244274809160305	2.503816793893129	0	-0.8100000000000001	-0.04	0.4744897959183674
63731982936.87669	0.2048192771084338	0.1807228915662651	-9.506024096385543	2781.684981684982	2271.794871794872	-0.7480916030534351	2.595419847328244	0.1679389312977099	-0.8100000000000001	-0.03272727272727273	0.4785714285714286
63731982936.88158	0.1927710843373494	0.1686746987951807	-9.506024096385543	2781.684981684982	2271.062271062271	-0.6870229007633587	2.458015267175572	0.1221374045801527	-0.8136363636363636	-0.03363636363636364	0.476530612244898
63731982936.88646	0.1927710843373494	0.2048192771084338	-9.493975903614459	2781.684981684982	2271.062271062271	-0.7633587786259541	2.396946564885496	0.04580152671755725	-0.8	-0.03909090909090909	0.4704081632653062
63731982936.89134	0.1807228915662651	0.1807228915662651	-9.506024096385543	2781.684981684982	2271.062271062271	-0.7938931297709924	2.473282442748092	0.1221374045801527	-0.8127272727272727	-0.04636363636363636	0.4734693877551021
63731982936.89622	0.1927710843373494	0.1686746987951807	-9.506024096385543	2781.684981684982	2271.062271062271	-0.732824427480916	2.427480916030534	0.0916030534351145	-0.8145454545454546	-0.05181818181818182	0.4724489795918368
63731982936.90111	0.1807228915662651	0.1807228915662651	-9.506024096385543	2781.684981684982	2271.062271062271	-0.8396946564885496	2.412213740458015	0.01526717557251908	-0.8072727272727273	-0.04636363636363636	0.4734693877551021
63731982936.90599	0.1807228915662651	0.1686746987951807	-9.518072289156628	2781.684981684982	2271.062271062271	-0.7480916030534351	2.488549618320611	0.0916030534351145	-0.8118181818181818	-0.04272727272727272	0.476530612244898
63731982936.91087	0.1686746987951807	0.1807228915662651	-9.518072289156628	2781.684981684982	2271.062271062271	-0.7938931297709924	2.549618320610687	0.01526717557251908	-0.8	-0.03545454545454545	0.476530612244898
63731982936.91576	0.1686746987951807	0.1686746987951807	-9.506024096385543	2780.952380952381	2264.468864468864	-0.7938931297709924	2.549618320610687	0.06106870229007633	-0.8054545454545454	-0.04727272727272727	0.4693877551020408
63731982936.92064	0.1686746987951807	0.1927710843373494	-9.506024096385543	2780.21978021978	2268.131868131868	-0.7022900763358778	2.488549618320611	0.04580152671755725	-0.8081818181818182	-0.04090909090909091	0.4642857142857143
63731982936.92552	0.1807228915662651	0.1807228915662651	-9.506024096385543	2779.487179487179	2263.003663003663	-0.8244274809160305	2.534351145038168	0.04580152671755725	-0.8145454545454546	-0.04636363636363636	0.4683673469387756
63731982936.9304	0.1807228915662651	0.1807228915662651	-9.493975903614459	2778.754578754579	2260.80586080586	-0.7480916030534351	2.641221374045801	-0.1221374045801527	-0.8145454545454546	-0.05636363636363637	0.4642857142857143
63731982936.93529	0.1807228915662651	0.1927710843373494	-9.518072289156628	2779.487179487179	2260.80586080586	-0.9465648854961831	2.534351145038168	0.1221374045801527	-0.8109090909090909	-0.04545454545454546	0.4693877551020408
63731982936.94017	0.1686746987951807	0.1807228915662651	-9.506024096385543	2780.952380952381	2261.538461538461	-0.8549618320610687	2.427480916030534	0.1221374045801527	-0.8118181818181818	-0.03545454545454545	0.4755102040816327
63731982936.94505	0.1686746987951807	0.1807228915662651	-9.493975903614459	2781.684981684982	2268.864468864469	-0.8854961832061068	2.564885496183206	0.03053435114503817	-0.8100000000000001	-0.04363636363636364	0.4704081632653062
63731982936.94994	0.1686746987951807	0.1927710843373494	-9.506024096385543	2782.417582417582	2271.794871794872	-0.9007633587786259	2.580152671755725	0.04580152671755725	-0.8127272727272727	-0.04727272727272727	0.4693877551020408
63731982936.95482	0.1686746987951807	0.2048192771084338	-9.506024096385543	2782.417582417582	2271.794871794872	-0.8091603053435115	2.488549618320611	0.1221374045801527	-0.8072727272727273	-0.05090909090909091	0.4704081632653062
63731982936.9597	0.1807228915662651	0.1807228915662651	-9.518072289156628	2781.684981684982	2271.062271062271	-0.7175572519083969	2.656488549618321	0.1526717557251908	-0.8090909090909091	-0.03545454545454545	0.4693877551020408
63731982936.96458	0.1686746987951807	0.1807228915662651	-9.506024096385543	2781.684981684982	2271.062271062271	-0.8091603053435115	2.412213740458015	-0.04580152671755725	-0.8063636363636364	-0.04454545454545455	0.4704081632653062
63731982936.96947	0.1807228915662651	0.1927710843373494	-9.506024096385543	2781.684981684982	2271.062271062271	-0.7786259541984732	2.458015267175572	0	-0.8145454545454546	-0.04363636363636364	0.4663265306122449
63731982936.97435	0.1927710843373494	0.1807228915662651	-9.481927710843374	2781.684981684982	2271.062271062271	-0.7633587786259541	2.610687022900763	-0.01526717557251908	-0.8127272727272727	-0.05272727272727273	0.4693877551020408
63731982936.97923	0.1807228915662651	0.1927710843373494	-9.493975903614459	2781.684981684982	2271.062271062271	-0.6412213740458015	2.503816793893129	0.2900763358778626	-0.8081818181818182	-0.05454545454545454	0.4683673469387756
63731982936.98412	0.1807228915662651	0.1927710843373494	-9.493975903614459	2781.684981684982	2271.062271062271	-1.022900763358779	2.748091603053435	-0.04580152671755725	-0.8136363636363636	-0.04363636363636364	0.4714285714285715
63731982936.989	0.1927710843373494	0.1807228915662651	-9.493975903614459	2780.952380952381	2264.468864468864	-0.8244274809160305	2.580152671755725	0.1068702290076336	-0.8154545454545454	-0.05181818181818182	0.4704081632653062
63731982936.99388	0.1807228915662651	0.1807228915662651	-9.506024096385543	2780.952380952381	2263.003663003663	-0.9312977099236641	2.33587786259542	0.1068702290076336	-0.8090909090909091	-0.02909090909090909	0.4714285714285715
63731982936.99876	0.1807228915662651	0.1927710843373494	-9.506024096385543	2780.21978021978	2268.131868131868	-0.8244274809160305	2.488549618320611	0.183206106870229	-0.8081818181818182	-0.04454545454545455	0.4734693877551021
63731982937.00365	0.1927710843373494	0.1807228915662651	-9.518072289156628	2780.21978021978	2269.59706959707	-0.7175572519083969	2.412213740458015	0.04580152671755725	-0.8081818181818182	-0.04727272727272727	0.4693877551020408
63731982937.00853	0.1686746987951807	0.1807228915662651	-9.530120481927712	2778.754578754579	2262.271062271062	-0.7786259541984732	2.458015267175572	-0.1526717557251908	-0.8136363636363636	-0.05181818181818182	0.4683673469387756
63731982937.01341	0.1807228915662651	0.1566265060240964	-9.506024096385543	2778.021978021978	2254.212454212454	-0.8396946564885496	2.488549618320611	-0.01526717557251908	-0.8081818181818182	-0.04636363636363636	0.4734693877551021
63731982937.0183	0.1927710843373494	0.1807228915662651	-9.506024096385543	2778.754578754579	2257.875457875458	-0.6106870229007634	2.534351145038168	-0.01526717557251908	-0.8090909090909091	-0.05090909090909091	0.4693877551020408
63731982937.02318	0.1807228915662651	0.1807228915662651	-9.518072289156628	2779.487179487179	2260.07326007326	-0.6870229007633587	2.625954198473282	0.04580152671755725	-0.8090909090909091	-0.03272727272727273	0.4724489795918368
63731982937.02806	0.1686746987951807	0.1927710843373494	-9.518072289156628	2779.487179487179	2260.80586080586	-0.732824427480916	2.656488549618321	0.1068702290076336	-0.8109090909090909	-0.04272727272727272	0.4724489795918368
63731982937.03294	0.1686746987951807	0.1807228915662651	-9.518072289156628	2780.952380952381	2262.271062271062	-0.6564885496183206	2.442748091603054	0.03053435114503817	-0.8009090909090909	-0.04272727272727272	0.4744897959183674
63731982937.03783	0.1807228915662651	0.1927710843373494	-9.506024096385543	2781.684981684982	2268.131868131868	-0.9618320610687022	2.473282442748092	-0.04580152671755725	-0.8063636363636364	-0.04818181818181818	0.4704081632653062
63731982937.04271	0.1807228915662651	0.1686746987951807	-9.506024096385543	2781.684981684982	2270.32967032967	-0.9770992366412213	2.549618320610687	0.1221374045801527	-0.8090909090909091	-0.05	0.4724489795918368
63731982937.04759	0.1807228915662651	0.1807228915662651	-9.518072289156628	2781.684981684982	2271.062271062271	-0.7633587786259541	2.519083969465649	0.03053435114503817	-0.8145454545454546	-0.04	0.4714285714285715
63731982937.05247	0.1807228915662651	0.1686746987951807	-9.506024096385543	2782.417582417582	2271.794871794872	-0.7938931297709924	2.519083969465649	-0.06106870229007633	-0.8118181818181818	-0.05454545454545454	0.4714285714285715
63731982937.05736	0.1927710843373494	0.1807228915662651	-9.518072289156628	2781.684981684982	2271.062271062271	-0.5190839694656488	2.519083969465649	0.1526717557251908	-0.8018181818181818	-0.04272727272727272	0.4693877551020408
63731982937.06224	0.1807228915662651	0.1807228915662651	-9.518072289156628	2781.684981684982	2271.062271062271	-0.8396946564885496	2.442748091603054	0.04580152671755725	-0.8109090909090909	-0.03727272727272727	0.4744897959183674
63731982937.06712	0.1807228915662651	0.1927710843373494	-9.506024096385543	2781.684981684982	2271.062271062271	-0.7786259541984732	2.274809160305344	0.1068702290076336	-0.8009090909090909	-0.04454545454545455	0.4683673469387756
63731982937.07201	0.1686746987951807	0.1927710843373494	-9.493975903614459	2781.684981684982	2271.062271062271	-0.732824427480916	2.595419847328244	0.0916030534351145	-0.8081818181818182	-0.04181818181818182	0.476530612244898
